Date,Time,accel_x,accel_y,accel_z
2022-09-03,23:35:16,-1.838746905,3.543418407,9.126696587
2022-09-03,23:35:31,1.110909581,1.810016513,9.634267807
2022-09-03,23:35:47,8.829815865,0.8331822157,4.663905144
2022-09-03,23:36:52,-0.8523358107,-0.1244984865,9.787496567
2022-09-03,23:37:44,-0.9002198577,-0.09576806426,9.835380554
2022-09-03,23:38:03,-0.8714894056,-0.1149216816,9.797073364
2022-09-03,23:39:03,-0.3734954596,0.4596867263,9.864110947
2022-09-03,23:42:34,-0.3543418646,0.4788403511,9.911994934
2022-09-03,23:44:58,-0.6033388376,0.1628057212,9.806650162
2022-09-03,23:46:16,-0.6224924326,0.1628057212,9.864110947
2022-09-03,23:49:46,-0.6416460276,0.1723825186,9.902418137
2022-09-03,23:55:28,-0.6129156351,0.1053448766,9.921571732
2022-09-04,00:00:44,-0.6224924326,0.1244984865,9.854534149
2022-09-04,00:05:07,-0.5937620401,0.1436520964,9.844957352
2022-09-04,00:05:38,-0.6320692301,0.1436520964,9.825803757
2022-09-04,00:08:13,-0.6033388376,0.1532289088,9.835380554
2022-09-04,00:11:26,-0.6416460276,0.1244984865,9.777919769
2022-09-04,00:11:42,0.3926490843,7.240066051,6.579266071
2022-09-04,00:11:57,0.9768342972,0.6607996821,9.835380554
2022-09-04,00:12:12,-0.5363011956,-0.03830722719,9.864110947
2022-09-04,00:12:27,-0.5363011956,0.04788403213,9.883264542
2022-09-04,00:12:42,-0.5937620401,-0.0287304204,9.902418137
2022-09-04,00:13:49,-0.6129156351,-0.009576806799,9.892841339
2022-09-04,00:15:11,-0.5841852427,0.03830722719,9.864110947
2022-09-04,00:17:32,-0.6320692301,0.0191536136,9.844957352
2022-09-04,00:19:21,-0.6224924326,0.04788403213,9.864110947
2022-09-04,00:32:03,-0.6033388376,0.05746084079,9.844957352
2022-09-04,00:41:15,-0.5458779931,-0.0191536136,9.806650162
2022-09-04,00:51:36,-0.6224924326,0.03830722719,9.892841339
2022-09-04,00:54:23,-0.5841852427,-0.05746084079,9.806650162
2022-09-04,00:57:57,-0.5458779931,0.05746084079,9.854534149
2022-09-04,01:02:37,-0.5363011956,0.0287304204,9.816226959
2022-09-04,01:07:50,-0.6512228847,0.0191536136,9.844957352
2022-09-04,01:12:10,-0.5841852427,0.0191536136,9.854534149
2022-09-04,01:14:03,-0.5554547906,0.0191536136,9.902418137
2022-09-04,01:14:20,-0.5458779931,-0.009576806799,9.806650162
2022-09-04,01:14:35,-0.5554547906,0.03830722719,9.883264542
2022-09-04,01:14:50,-0.5650315881,0.0191536136,9.758766174
2022-09-04,01:15:05,-0.5075707436,0,9.864110947
2022-09-04,01:15:20,-0.6129156351,0,9.835380554
2022-09-04,01:15:35,-0.6224924326,0.0287304204,9.883264542
2022-09-04,01:15:50,-0.517147541,0.05746084079,9.873687744
2022-09-04,01:16:05,-0.6607996821,0.0191536136,9.835380554
2022-09-04,01:16:20,-0.6033388376,0.06703764945,9.902418137
2022-09-04,01:16:35,-0.5650315881,0,9.835380554
2022-09-04,01:16:50,-0.6895300746,-0.009576806799,9.787496567
2022-09-04,01:17:05,-0.5650315881,0.0191536136,9.940725327
2022-09-04,01:17:20,-0.5650315881,0.05746084079,9.854534149
2022-09-04,01:17:36,-0.517147541,0.04788403213,9.835380554
2022-09-04,01:17:51,-0.6224924326,0.0287304204,9.825803757
2022-09-04,01:18:06,-0.5554547906,0.06703764945,9.844957352
2022-09-04,01:18:21,-0.6129156351,0.009576806799,9.854534149
2022-09-04,01:18:36,-0.5841852427,0.07661445439,9.873687744
2022-09-04,01:18:51,-0.5458779931,0.0191536136,9.902418137
2022-09-04,01:19:06,-0.6224924326,0.0287304204,9.883264542
2022-09-04,01:19:21,-0.6607996821,0,9.825803757
2022-09-04,01:19:36,-0.5937620401,0.06703764945,9.825803757
2022-09-04,01:19:51,-0.5650315881,0,9.835380554
2022-09-04,01:20:06,-0.6033388376,0.0287304204,9.797073364
2022-09-04,01:20:21,-0.6607996821,-0.009576806799,9.892841339
2022-09-04,01:20:36,-0.5363011956,0,9.892841339
2022-09-04,01:20:51,-0.5458779931,0.06703764945,9.873687744
2022-09-04,01:21:06,0.2394201756,0.5841852427,9.854534149
2022-09-04,01:21:21,-0.5746083856,0.0191536136,9.825803757
2022-09-04,01:21:36,-0.5458779931,-0.009576806799,9.806650162
2022-09-04,01:21:51,-0.5746083856,-0.009576806799,9.892841339
2022-09-04,01:22:06,-0.5267243981,-0.0191536136,9.844957352
2022-09-04,01:22:21,-0.5363011956,0.06703764945,9.892841339
2022-09-04,01:22:36,-0.5458779931,0.04788403213,9.825803757
2022-09-04,01:23:21,0.2968810201,-0.06703764945,9.892841339
2022-09-04,01:23:36,0.3351882398,-0.07661445439,9.931148529
2022-09-04,01:23:52,0.3926490843,-0.0191536136,9.864110947
2022-09-04,01:24:07,0.3639186621,-0.04788403213,9.864110947
2022-09-04,01:24:22,0.2968810201,-0.09576806426,9.864110947
2022-09-04,01:24:37,4.23294878,2.767697096,8.954314232
2022-09-04,01:24:52,1.398213744,4.797980309,8.159439087
2022-09-04,01:25:07,1.532289028,4.989516258,8.743624687
2022-09-04,01:25:22,2.078166962,4.46279192,8.370129585
2022-09-04,01:25:37,1.675941229,5.506663799,8.025363922
2022-09-04,01:25:52,1.359906554,5.793968201,7.7284832
2022-09-04,01:26:07,1.350329757,5.363011837,7.891288757
2022-09-04,01:26:24,0.4979939461,-0.6129156351,9.902418137
2022-09-04,01:27:06,0.6129156351,-0.5937620401,9.844957352
2022-09-04,01:27:57,0.5267243981,-0.6512228847,9.854534149
2022-09-04,01:28:40,0.5267243981,-0.5650315881,9.854534149
2022-09-04,01:32:01,0.5363011956,-0.5650315881,9.835380554
2022-09-04,01:34:46,0.8906430602,5.152322292,6.904877663
2022-09-04,01:35:01,1.015141487,5.612008572,8.063671112
2022-09-04,01:35:16,0.7374141216,5.707777023,7.948749542
2022-09-04,01:35:31,0.8331822157,5.257667065,8.312667847
2022-09-04,01:35:46,2.097320795,4.654327869,7.891288757
2022-09-04,01:36:19,0.8044517636,-0.2298433632,9.892841339
2022-09-04,01:38:51,0.7757213712,-0.181959331,9.825803757
2022-09-04,01:39:09,0.7469909191,-0.2011129409,9.864110947
2022-09-04,01:39:28,0.7469909191,-0.2202665508,9.835380554
2022-09-04,01:39:55,0.7757213712,-0.2202665508,9.835380554
2022-09-04,01:48:02,0.6991068721,-0.2298433632,9.844957352
2022-09-04,01:50:01,-1.388636947,-0.9002198577,9.787496567
2022-09-04,01:50:16,8.791508675,-0.1149216816,5.717353821
2022-09-04,01:50:31,8.973467827,-0.2202665508,4.185064793
2022-09-04,01:50:46,9.854534149,-0.7086837292,2.365471363
2022-09-04,01:51:01,9.35654068,-0.08619125932,3.801992416
2022-09-04,01:51:16,9.251194954,-0.1340752989,3.79241538
2022-09-04,01:51:31,9.308655739,-0.1244984865,3.687070608
2022-09-04,01:51:46,9.423578262,-0.4692635238,3.53384161
2022-09-04,01:52:01,9.279925346,-0.04788403213,3.888183594
2022-09-04,01:52:16,9.232041359,-0.07661445439,3.79241538
2022-09-04,01:52:31,9.557653427,-0.1436520964,3.45722723
2022-09-04,01:52:46,9.461885452,-0.1436520964,3.34230566
2022-09-04,01:53:01,9.423578262,-0.1532289088,3.275267839
2022-09-04,01:53:19,0.7469909191,1.426944256,9.739612579
2022-09-04,01:53:52,0.7948749661,1.350329757,9.730035782
2022-09-04,01:55:22,0.7086837292,1.398213744,9.758766174
2022-09-04,02:00:28,0.8619126081,1.446097851,9.825803757
2022-09-04,02:01:29,0.8140285611,1.388636947,9.662998199
2022-09-04,02:03:19,0.9768342972,1.436521053,9.777919769
2022-09-04,02:04:54,0.8523358107,1.379060149,9.749189377
2022-09-04,02:06:40,-2.729389906,2.537853718,7.374141216
2022-09-04,02:06:55,8.992621422,1.015141487,4.395754337
2022-09-04,02:07:11,9.346963882,0.9672574997,3.706224203
2022-09-04,02:07:26,9.289502144,0.9672574997,3.639186621
2022-09-04,02:07:41,9.414001465,0.7182605267,3.591302633
2022-09-04,02:07:56,9.299078941,0.7852981687,3.543418407
2022-09-04,02:08:11,9.270348549,0.9193734527,3.706224203
2022-09-04,02:08:27,9.31823349,1.00556469,3.351882458
2022-09-04,02:08:42,9.212887764,0.8906430602,3.562572241
2022-09-04,02:08:57,9.222464561,0.8714894056,2.595314741
2022-09-04,02:09:12,9.251194954,0.9193734527,3.926490784
2022-09-04,02:09:27,9.308655739,0.9193734527,3.591302633
2022-09-04,02:09:42,9.145850182,0.8619126081,3.859453201
2022-09-04,02:09:57,9.184157372,0.8331822157,3.869029999
2022-09-04,02:10:12,9.011775017,0.7278373241,4.23294878
2022-09-04,02:10:27,9.002198219,0.8714894056,4.252102375
2022-09-04,02:10:42,8.954314232,0.8140285611,4.357447147
2022-09-04,02:10:57,9.040505409,0.8044517636,4.27125597
2022-09-04,02:11:12,9.088389397,0.7278373241,4.38617754
2022-09-04,02:11:27,8.992621422,0.7469909191,4.328716755
2022-09-04,02:11:42,8.944737434,0.6607996821,4.434061527
2022-09-04,02:11:57,8.973467827,0.7469909191,4.414907932
2022-09-04,02:12:12,8.925583839,0.7469909191,4.50109911
2022-09-04,02:12:27,8.963891029,0.7182605267,4.491522312
2022-09-04,02:12:42,8.801085472,0.8810662031,4.596867085
2022-09-04,02:12:57,8.81066227,0.9385270476,4.510675907
2022-09-04,02:13:31,0.1244984865,0.08619125932,9.902418137
2022-09-04,02:15:04,0.1436520964,0.09576806426,9.864110947
2022-09-04,02:16:59,0.1149216816,0.07661445439,9.950302124
2022-09-04,02:22:40,0.1532289088,0.03830722719,9.873687744
2022-09-04,02:28:19,0.517147541,0.7565677166,9.643844604
2022-09-04,02:28:38,-0.6033388376,0.2011129409,12.83292103
2022-09-04,02:28:53,0.2968810201,-0.05746084079,9.797073364
2022-09-04,02:29:08,0.383072257,-0.1149216816,9.940725327
2022-09-04,02:29:23,0.4022258818,-0.04788403213,9.883264542
2022-09-04,02:29:47,0.3926490843,-0.08619125932,9.873687744
2022-09-04,02:41:27,0.3926490843,-0.08619125932,9.873687744
2022-09-04,02:45:54,0.3926490843,-0.08619125932,9.806650162
2022-09-04,02:46:36,0.4118026793,-0.06703764945,9.883264542
2022-09-04,02:47:27,0.3447650373,-0.0287304204,9.911994934
2022-09-04,02:49:39,0.383072257,-0.06703764945,9.902418137
2022-09-04,02:51:25,0.4501099288,-0.0287304204,9.854534149
2022-09-04,02:52:30,0.4405331016,-0.09576806426,9.844957352
2022-09-04,02:54:15,0.4309563041,-0.09576806426,9.873687744
2022-09-04,02:56:11,0.3639186621,-0.009576806799,9.864110947
2022-09-04,02:57:22,0.4788403511,-0.03830722719,9.873687744
2022-09-04,02:58:21,0.4022258818,-0.03830722719,9.854534149
2022-09-04,03:03:14,0.3639186621,-0.1436520964,9.892841339
2022-09-04,03:05:36,0.3734954596,-0.0191536136,9.835380554
2022-09-04,03:08:14,0.3734954596,-0.0287304204,9.921571732
2022-09-04,03:12:19,0.3734954596,-0.0191536136,9.911994934
2022-09-04,03:13:42,-8.46589756,-3.055001259,0.4118026793
2022-09-04,03:13:59,-9.011775017,-1.024718285,2.442085743
2022-09-04,03:14:14,-8.81066227,-1.810016513,3.12203908
2022-09-04,03:14:29,-8.973467827,-1.436521053,2.815581083
2022-09-04,03:14:44,-8.054094315,-1.953668594,4.903325081
2022-09-04,03:14:59,-8.84896946,-2.030282974,2.748543501
2022-09-04,03:15:14,-9.050082207,-1.924938202,2.106897593
2022-09-04,03:15:27,-8.73404789,-1.944091797,3.323152065
2022-09-04,03:15:42,-9.212887764,-1.082179189,1.771709204
2022-09-04,03:15:57,-9.050082207,-1.216254473,2.336740971
2022-09-04,03:16:12,-9.279925346,-1.436521053,0.1340752989
2022-09-04,03:16:28,-9.251194954,-0.8619126081,1.350329757
2022-09-04,03:16:43,-9.308655739,-1.063025594,1.283292055
2022-09-04,03:16:58,-9.251194954,1.26413846,1.321599364
2022-09-04,03:17:13,-9.327810287,1.101332784,0.4118026793
2022-09-04,03:17:28,-9.327810287,1.158793569,0.5075707436
2022-09-04,03:17:43,-9.385271072,1.273715258,0.6703764796
2022-09-04,03:17:58,-9.31823349,1.18752408,0.8619126081
2022-09-04,03:18:13,-9.059659004,-1.206677675,2.777273893
2022-09-04,03:18:28,-8.916007042,-1.589749932,2.863465309
2022-09-04,03:18:43,-8.61912632,-1.532289028,3.754108191
2022-09-04,03:18:58,-8.513781548,-1.714248419,3.801992416
2022-09-04,03:19:13,-9.289502144,-0.4692635238,1.273715258
2022-09-04,03:19:28,-9.299078941,-0.7565677166,2.394201756
2022-09-04,03:19:43,-9.117119789,0.2298433632,2.461239338
2022-09-04,03:19:58,-9.078812599,0.2202665508,2.815581083
2022-09-04,03:20:13,-8.916007042,-0.2585737705,2.796427488
2022-09-04,03:20:28,-8.925583839,-0.2681505978,2.796427488
2022-09-04,03:20:43,-9.050082207,-0.517147541,2.834734917
2022-09-04,03:20:58,-8.777143478,-2.370259762,2.770091295
2022-09-04,03:21:13,0.07661445439,2.738966703,9.442731857
2022-09-04,03:21:29,0.4979939461,1.043871999,9.844957352
2022-09-04,03:21:59,0.9193734527,1.417367458,9.710882187
2022-09-04,03:22:28,0.9481038451,1.340752959,9.768342972
2022-09-04,03:23:57,0.9002198577,1.379060149,9.720458984
2022-09-04,03:25:53,0.9481038451,1.312022567,9.787496567
2022-09-04,03:26:20,0.9097966552,1.379060149,9.739612579
2022-09-04,03:27:15,0.9385270476,1.388636947,9.797073364
2022-09-04,03:34:50,0.9385270476,1.359906554,9.797073364
2022-09-04,03:39:09,0.9481038451,1.369483352,9.816226959
2022-09-04,03:46:34,0.8810662031,1.340752959,9.749189377
2022-09-04,03:57:34,0.8619126081,1.359906554,9.691728592
2022-09-04,04:03:35,0.9193734527,1.417367458,9.749189377
2022-09-04,04:17:57,0.6703764796,1.312022567,9.777919769
2022-09-04,04:23:21,0.7469909191,1.675941229,9.720458984
2022-09-04,04:23:36,0.7852981687,1.589749932,9.701305389
2022-09-04,04:27:16,0.2873041928,1.685518026,9.701305389
2022-09-04,04:35:23,0.2777273953,1.628057122,9.701305389
2022-09-04,04:43:55,0.2873041928,1.685518026,9.777919769
2022-09-04,04:53:20,0.5650315881,1.321599364,9.768342972
2022-09-04,05:09:02,0.08619125932,1.89620769,9.643844604
2022-09-04,05:15:02,0.09576806426,1.915361404,9.672574997
2022-09-04,05:16:29,0.08619125932,1.915361404,9.720458984
2022-09-04,05:29:51,0.0287304204,1.991975784,9.701305389
2022-09-04,05:45:26,0.0287304204,1.89620769,9.643844604
2022-09-04,05:59:39,0.1532289088,1.350329757,9.758766174
2022-09-04,06:09:21,0.1915361285,1.359906554,9.777919769
2022-09-04,06:20:05,0.1723825186,1.369483352,9.739612579
2022-09-04,06:23:53,0.1723825186,1.350329757,9.787496567
2022-09-04,06:24:08,0.2106897533,1.350329757,9.710882187
2022-09-04,06:24:24,0.181959331,1.302445769,9.749189377
2022-09-04,06:24:39,0.1436520964,1.340752959,9.682151794
2022-09-04,06:24:54,0.1340752989,1.331176162,9.749189377
2022-09-04,06:25:09,0.2106897533,1.369483352,9.682151794
2022-09-04,06:25:24,0.1053448766,1.340752959,9.787496567
2022-09-04,06:25:39,0.1915361285,1.379060149,9.758766174
2022-09-04,06:25:54,0.2202665508,1.350329757,9.835380554
2022-09-04,06:26:09,0.2106897533,1.350329757,9.777919769
2022-09-04,06:26:24,0.2011129409,1.369483352,9.758766174
2022-09-04,06:26:39,0.2394201756,1.417367458,9.730035782
2022-09-04,06:26:54,0.1436520964,1.273715258,9.768342972
2022-09-04,06:27:09,0.2011129409,1.359906554,9.816226959
2022-09-04,06:27:24,0.2011129409,1.312022567,9.835380554
2022-09-04,06:27:39,0.1723825186,1.283292055,9.787496567
2022-09-04,06:30:02,0.1532289088,1.302445769,9.730035782
2022-09-04,06:38:55,0.3351882398,1.455674648,9.768342972
2022-09-04,06:42:57,0.3256114423,1.513135433,9.662998199
2022-09-04,06:50:02,-2.403778553,-0.9768342972,9.50976944
2022-09-04,06:50:17,-2.403778553,-0.9672574997,9.43315506
2022-09-04,06:50:32,4.079719543,5.698200226,6.703764915
2022-09-04,06:50:55,2.585737944,1.532289028,9.461885452
2022-09-04,06:51:37,2.652775526,1.484405041,9.538499832
2022-09-04,06:54:09,2.662352324,1.551442742,9.404424667
2022-09-04,06:58:40,2.710236311,1.551442742,9.461885452
2022-09-04,07:06:29,2.796427488,1.474828243,9.404424667
2022-09-04,07:20:56,1.130063176,1.340752959,9.682151794
2022-09-04,07:30:07,1.063025594,1.388636947,9.768342972
2022-09-04,07:38:58,0.9768342972,1.417367458,9.806650162
2022-09-04,07:52:26,0.9768342972,1.465251446,9.701305389
2022-09-04,07:52:41,0.9097966552,1.426944256,9.749189377
2022-09-04,07:52:56,1.053448796,1.436521053,9.720458984
2022-09-04,07:53:11,0.9768342972,1.417367458,9.730035782
2022-09-04,07:53:32,0.9576807022,1.426944256,9.730035782
2022-09-04,08:02:20,1.034295082,1.474828243,9.768342972
2022-09-04,08:15:44,0.9193734527,1.426944256,9.758766174
2022-09-04,08:16:36,0.9481038451,1.369483352,9.777919769
2022-09-04,08:22:18,0.9576807022,1.426944256,9.739612579
2022-09-04,08:32:08,0.9481038451,1.474828243,9.758766174
2022-09-04,08:35:12,1.00556469,1.426944256,9.787496567
2022-09-04,08:43:13,0.9576807022,1.407790542,9.768342972
2022-09-04,08:43:28,0.9385270476,1.359906554,9.749189377
2022-09-04,08:43:43,1.024718285,1.446097851,9.662998199
2022-09-04,08:44:09,1.216254473,1.388636947,9.710882187
2022-09-04,08:44:30,-7.824251175,-5.372588634,1.177947283
2022-09-04,08:45:17,-4.932055473,5.104437828,-6.339846134
2022-09-04,08:45:32,0.9097966552,0.8331822157,-9.653421402
2022-09-04,08:48:15,-6.138733387,5.640739441,-4.443638325
2022-09-04,08:50:27,-0.04788403213,-0.4405331016,11.10909557
2022-09-04,08:50:42,-3.734954596,2.882618904,8.552088737
2022-09-04,08:50:57,-2.671929121,2.796427488,8.944737434
2022-09-04,08:51:12,-2.767697096,3.485957623,8.561665535
2022-09-04,08:51:27,-3.016694069,3.102885485,8.829815865
2022-09-04,08:51:42,-3.141192675,2.652775526,8.6957407
2022-09-04,08:51:57,-1.8579005,4.290409565,8.494627953
2022-09-04,08:52:12,0.5746083856,5.27682066,8.54251194
2022-09-04,08:52:27,-0.8236053586,3.763684988,9.059659004
2022-09-04,08:52:42,-1.493981838,2.221819162,9.452308655
2022-09-04,08:52:57,-1.762132406,3.974374771,8.820239067
2022-09-04,08:53:12,-2.432508945,3.936067581,8.762778282
2022-09-04,08:53:27,-1.417367458,3.524264812,9.346963882
2022-09-04,08:53:42,5.736507416,-7.785943985,-0.9002198577
2022-09-04,08:53:57,6.828263283,-7.240066051,-0.1436520964
2022-09-04,08:54:12,6.866570473,-7.307103634,-0.2681505978
2022-09-04,08:54:28,6.397306919,-7.441178799,-0.03830722719
2022-09-04,08:54:45,8.456320763,-3.964797974,-3.667917013
2022-09-04,08:55:00,7.671022415,0.8331822157,-6.110002518
2022-09-04,08:55:21,7.671022415,0.4118026793,-6.330269337
2022-09-04,08:55:43,7.61356163,0.3447650373,-6.349422932
2022-09-04,08:56:01,7.469909191,-0.2777273953,-6.454767704
2022-09-04,08:56:21,7.460332394,-0.1723825186,-6.598419666
2022-09-04,08:56:45,7.422025204,-0.1915361285,-6.646304131
2022-09-04,08:57:21,7.450755596,-0.2394201756,-6.675034523
2022-09-04,08:59:09,7.469909191,0.1628057212,-6.531382084
2022-09-04,09:00:43,6.330269337,1.867477298,-7.345410824
2022-09-04,09:04:01,0.1723825186,9.615114212,-0.4884171486
2022-09-04,09:05:13,2.56658411,7.240066051,7.422025204
2022-09-04,09:05:28,1.628057122,9.308655739,2.183511972
2022-09-04,09:05:43,7.019799232,6.780379295,-1.800439715
2022-09-04,09:05:58,6.301538944,7.077260017,-2.11647439
2022-09-04,09:06:13,5.937620163,7.287950039,-2.978386879
2022-09-04,09:06:28,7.192182064,5.784391403,-3.371036053
2022-09-04,09:06:43,6.655880928,6.215347767,-3.45722723
2022-09-04,09:06:59,6.330269337,6.856993675,-3.016694069
2022-09-04,09:07:14,6.10042572,6.751648903,-3.275267839
2022-09-04,09:07:29,6.378153324,6.751648903,-3.466804028
2022-09-04,09:07:44,5.870582581,7.144298077,-2.758120298
2022-09-04,09:07:59,6.177040577,6.95276165,-3.141192675
2022-09-04,09:08:14,5.726930618,7.201758862,-3.227383852
2022-09-04,09:08:29,5.822698593,7.489062786,-2.777273893
2022-09-04,09:08:44,6.052541733,7.125144482,-2.892195702
2022-09-04,09:08:59,6.186617374,7.182605267,-2.997540474
2022-09-04,09:09:14,5.899312973,7.307103634,-3.169923067
2022-09-04,09:09:29,6.033388138,7.575253963,-2.001552582
2022-09-04,09:09:44,5.822698593,7.632715225,-2.346317768
2022-09-04,09:09:59,5.803544998,7.393294811,-2.796427488
2022-09-04,09:10:14,5.784391403,7.201758862,-2.652775526
2022-09-04,09:10:29,6.445190907,6.79953289,-2.748543501
2022-09-04,09:10:44,5.966350555,7.393294811,-2.748543501
2022-09-04,09:10:59,5.870582581,7.335834026,-2.825158119
2022-09-04,09:11:14,6.263231754,6.856993675,-1.800439715
2022-09-04,09:11:29,5.918466568,6.962338448,-3.610456228
2022-09-04,09:11:44,5.726930618,7.173028469,-3.754108191
2022-09-04,09:11:59,5.889736176,7.010222435,-3.505111217
2022-09-04,09:12:14,-0.4692635238,9.653421402,-0.1915361285
2022-09-04,09:12:29,-0.7086837292,9.260771751,-2.557007313
2022-09-04,09:12:45,-1.944091797,9.002198219,-2.15478158
2022-09-04,09:13:00,-2.087743998,8.6957407,-3.179499865
2022-09-04,09:13:15,-1.934514999,8.801085472,-3.093308687
2022-09-04,09:13:30,-3.236960649,8.667010307,-2.212242365
2022-09-04,09:13:45,-2.518700123,8.877699852,-2.480392933
2022-09-04,09:14:00,-1.216254473,9.059659004,-2.892195702
2022-09-04,09:14:15,-1.8579005,8.714894295,-3.438073635
2022-09-04,09:14:30,-1.695094824,8.609549522,-3.840299606
2022-09-04,09:14:45,-2.260126352,8.714894295,-3.294421434
2022-09-04,09:15:00,5.755661011,7.747636795,-1.541865945
2022-09-04,09:15:15,6.655880928,7.527369976,-3.265691042
2022-09-04,09:15:30,6.167463779,7.010222435,-2.949656487
2022-09-04,09:15:45,5.908889771,7.02937603,-3.485957623
2022-09-04,09:16:00,5.98550415,7.153874874,-3.12203908
2022-09-04,09:16:15,5.669469833,7.268796444,-3.399766445
2022-09-04,09:16:30,5.861005783,7.173028469,-3.447650433
2022-09-04,09:16:45,5.525817394,7.671022415,-2.834734917
2022-09-04,09:17:00,5.372588634,7.431602001,-3.543418407
2022-09-04,09:17:15,5.152322292,6.95276165,-4.491522312
2022-09-04,09:17:30,5.248090267,7.134721279,-4.022258759
2022-09-04,09:17:45,6.531382084,6.895300865,-2.806004286
2022-09-04,09:18:00,6.02381134,6.780379295,-3.715801001
2022-09-04,09:18:15,5.736507416,6.770802498,-4.242525578
2022-09-04,09:18:31,6.694188118,5.995080948,-2.461239338
2022-09-04,09:18:46,5.659893036,6.847416878,-4.252102375
2022-09-04,09:19:01,5.928043365,6.655880928,-3.869029999
2022-09-04,09:19:16,5.487510204,6.742072105,-4.596867085
2022-09-04,09:19:31,9.107542992,3.447650433,3.035847664
2022-09-04,09:20:04,0.1436520964,1.158793569,9.739612579
2022-09-04,09:20:40,0.1244984865,1.149216771,9.787496567
2022-09-04,09:21:25,0.1244984865,1.139639974,9.768342972
2022-09-04,09:23:39,0.1149216816,1.101332784,9.816226959
2022-09-04,09:24:25,-3.313575268,-0.6129156351,9.155426979
2022-09-04,09:24:40,-0.8810662031,0.9193734527,9.758766174
2022-09-04,09:24:55,-0.8523358107,0.9289502501,9.864110947
2022-09-04,09:25:10,-0.8236053586,0.9193734527,9.777919769
2022-09-04,09:25:25,-1.034295082,0.5458779931,9.758766174
2022-09-04,09:25:40,-1.120486379,0.8044517636,9.768342972
2022-09-04,09:25:55,-1.024718285,0.9576807022,9.691728592
2022-09-04,09:26:10,-0.9385270476,0.181959331,9.797073364
2022-09-04,09:26:25,-1.053448796,0.09576806426,10.08437729
2022-09-04,09:26:40,-1.101332784,0.05746084079,9.816226959
2022-09-04,09:26:55,-1.168370485,0.04788403213,9.701305389
2022-09-04,09:27:10,0.1149216816,0.7661445141,-9.682151794
2022-09-04,09:27:26,0.08619125932,0.7374141216,-9.701305389
2022-09-04,09:27:41,0.1149216816,0.7374141216,-9.634267807
2022-09-04,09:27:56,0.1532289088,0.6799532771,-9.710882187
2022-09-04,09:28:11,0.1723825186,0.7374141216,-9.730035782
2022-09-04,09:28:26,0.1436520964,0.7182605267,-9.672574997
2022-09-04,09:28:41,0.1340752989,0.7182605267,-9.672574997
2022-09-04,09:28:56,0.1244984865,0.7086837292,-9.691728592
2022-09-04,09:29:11,0.1340752989,0.7469909191,-9.662998199
2022-09-04,09:29:26,0.1436520964,0.7278373241,-9.720458984
2022-09-04,09:29:41,0.1436520964,0.6991068721,-9.768342972
2022-09-04,09:29:56,-0.1723825186,0.5075707436,-9.662998199
2022-09-04,09:30:11,2.585737944,3.485957623,8.925583839
2022-09-04,09:30:26,0.3734954596,-0.09576806426,9.911994934
2022-09-04,09:30:41,0.3639186621,-0.1340752989,9.892841339
2022-09-04,09:31:11,0.3543418646,-0.08619125932,9.892841339
2022-09-04,09:31:39,0.2873041928,-0.0287304204,9.854534149
2022-09-04,09:32:27,0.4022258818,-0.06703764945,9.873687744
2022-09-04,09:32:46,0.3351882398,-0.1053448766,9.883264542
2022-09-04,09:34:08,0.3734954596,-0.07661445439,9.979032516
2022-09-04,09:35:35,0.3734954596,-0.09576806426,9.902418137
2022-09-04,09:41:20,0.3734954596,-0.08619125932,9.844957352
2022-09-04,09:56:34,0.3543418646,-0.04788403213,9.902418137
2022-09-04,10:05:52,0.3351882398,-0.1149216816,9.864110947
2022-09-04,10:10:49,0.3256114423,-0.1244984865,9.825803757
2022-09-04,10:13:27,0.316034615,-0.1053448766,9.950302124
2022-09-04,10:15:38,0.3447650373,-0.1149216816,9.864110947
2022-09-04,10:16:35,3.734954596,6.177040577,6.981492043
2022-09-04,10:16:50,2.11647439,4.165910721,8.303091049
2022-09-04,10:17:05,1.407790542,5.401319027,8.111555099
2022-09-04,10:17:20,0.4022258818,10.00776291,7.623138428
2022-09-04,10:17:38,0.4405331016,-0.2777273953,9.902418137
2022-09-04,10:19:08,0.4596867263,-0.181959331,9.854534149
2022-09-04,10:19:49,0.3926490843,-0.2202665508,9.864110947
2022-09-04,10:20:34,0.4501099288,-0.2394201756,9.921571732
2022-09-04,10:22:47,0.5363011956,-0.1915361285,9.921571732
2022-09-04,10:23:19,0.4501099288,-0.1532289088,9.902418137
2022-09-04,10:23:57,0.5075707436,-0.181959331,9.844957352
2022-09-04,10:25:10,0.383072257,-0.1723825186,9.931148529
2022-09-04,10:26:52,0.4692635238,-0.181959331,9.854534149
2022-09-04,10:27:42,6.406883717,7.240066051,4.960785866
2022-09-04,10:27:57,4.252102375,8.791508675,-0.3543418646
2022-09-04,10:28:12,5.267243862,7.393294811,4.137180328
2022-09-04,10:28:27,5.123591423,7.479485989,3.801992416
2022-09-04,10:28:42,5.35343504,7.479485989,3.667917013
2022-09-04,10:28:57,5.573701382,7.153874874,3.811569214
2022-09-04,10:29:12,5.477933407,7.144298077,3.983951569
2022-09-04,10:29:27,4.922478676,7.335834026,4.548983097
2022-09-04,10:29:42,0.4596867263,5.497087002,8.130708694
2022-09-04,10:29:58,1.00556469,5.027823448,8.370129585
2022-09-04,10:30:13,0.7086837292,6.397306919,7.134721279
2022-09-04,10:30:28,0.9481038451,5.918466568,7.69017601
2022-09-04,10:30:43,3.179499865,3.34230566,8.226476669
2022-09-04,10:30:58,1.082179189,4.797980309,8.312667847
2022-09-04,10:31:21,-0.4596867263,0.181959331,9.825803757
2022-09-04,10:32:57,-0.4979939461,0.1723825186,9.758766174
2022-09-04,10:33:48,-0.2968810201,0.3639186621,9.911994934
2022-09-04,10:34:32,-0.2681505978,0.2968810201,9.854534149
2022-09-04,10:37:00,-0.2968810201,0.4022258818,9.864110947
2022-09-04,10:37:49,-0.2873041928,0.4405331016,9.892841339
2022-09-04,10:39:33,-0.316034615,0.4213795066,9.844957352
2022-09-04,10:42:46,-0.3064578176,0.4405331016,9.883264542
2022-09-04,10:44:55,-0.6129156351,0.1628057212,9.835380554
2022-09-04,10:46:24,-0.5937620401,0.2011129409,9.825803757
2022-09-04,10:48:55,-0.6129156351,0.1436520964,9.806650162
2022-09-04,10:50:56,-0.6416460276,0.2202665508,9.844957352
2022-09-04,10:52:04,0.2585737705,0,9.931148529
2022-09-04,10:52:19,0.3064578176,0.05746084079,9.883264542
2022-09-04,10:52:34,0.2777273953,0.1053448766,9.921571732
2022-09-04,10:52:53,-0.517147541,-0.08619125932,9.931148529
2022-09-04,10:53:21,0.4405331016,4.23294878,8.65743351
2022-09-04,10:53:36,0.7948749661,-0.2873041928,9.835380554
2022-09-04,10:53:51,0.7374141216,-0.181959331,9.940725327
2022-09-04,10:54:06,0,4.30956316,8.54251194
2022-09-04,10:54:21,-0.5650315881,3.801992416,8.963891029
2022-09-04,10:54:36,4.979939461,-1.436521053,3.744531393
2022-09-04,10:54:56,0.2585737705,-12.68926907,2.068590164
2022-09-04,10:55:12,0.9481038451,5.152322292,7.297526836
2022-09-04,10:55:27,0.1723825186,6.789956093,7.153874874
2022-09-04,10:55:42,-0.06703764945,6.378153324,7.584830761
2022-09-04,10:55:57,-0.181959331,5.966350555,7.259219646
2022-09-04,10:56:12,-0.6129156351,4.654327869,8.743624687
2022-09-04,10:56:27,-0.9097966552,2.537853718,9.193734169
2022-09-04,10:56:42,-3.706224203,0.8427590132,10.52491093
2022-09-04,10:56:57,-7.565677166,1.197100878,11.49216843
2022-09-04,10:57:14,-0.5746083856,6.493074894,7.125144482
2022-09-04,10:57:29,0.5841852427,4.884171486,8.906430244
2022-09-04,10:57:44,0.383072257,5.305551052,7.99663353
2022-09-04,10:57:59,0.383072257,5.372588634,8.03494072
2022-09-04,10:58:14,-1.359906554,5.592854977,7.99663353
2022-09-04,10:58:29,-1.175553083,6.366182327,7.268796444
2022-09-04,10:58:44,0.316034615,-0.09576806426,9.864110947
2022-09-04,10:58:59,0.316034615,-0.1532289088,9.940725327
2022-09-04,10:59:14,0.2681505978,-0.1436520964,9.825803757
2022-09-04,10:59:29,0.3064578176,-0.04788403213,9.902418137
2022-09-04,10:59:44,1.704671621,3.19865346,9.078812599
2022-09-04,11:00:00,3.591302633,3.754108191,8.571242332
2022-09-04,11:00:15,0.1149216816,4.357447147,8.81066227
2022-09-04,11:00:30,0.5746083856,4.826710701,8.609549522
2022-09-04,11:00:45,0.9002198577,5.20020628,8.274360657
2022-09-04,11:01:00,0.7182605267,4.999093056,8.446743965
2022-09-04,11:01:15,0.7182605267,4.663905144,8.523358345
2022-09-04,11:01:30,0.3256114423,0.03830722719,9.873687744
2022-09-04,11:03:01,0.4118026793,-0.1149216816,9.844957352
2022-09-04,11:03:16,0.3639186621,-0.05746084079,9.864110947
2022-09-04,11:03:31,0.3734954596,-0.05746084079,9.844957352
2022-09-04,11:03:46,0.3734954596,-0.08619125932,9.873687744
2022-09-04,11:04:01,0.3639186621,-0.09576806426,9.921571732
2022-09-04,11:04:16,0.3064578176,-0.06703764945,9.835380554
2022-09-04,11:04:31,0.4022258818,-0.04788403213,9.892841339
2022-09-04,11:04:47,0.3639186621,-0.09576806426,9.979032516
2022-09-04,11:05:02,0.3734954596,-0.0191536136,9.873687744
2022-09-04,11:05:17,0.4501099288,-0.04788403213,9.921571732
2022-09-04,11:05:32,0.4596867263,-0.06703764945,9.864110947
2022-09-04,11:05:47,0.3926490843,-0.07661445439,9.940725327
2022-09-04,11:06:02,0.4118026793,-0.1053448766,9.892841339
2022-09-04,11:06:17,0.4692635238,-0.03830722719,9.835380554
2022-09-04,11:07:18,0.3064578176,-0.3064578176,9.854534149
2022-09-04,11:09:12,2.940079689,3.055001259,7.393294811
2022-09-04,11:09:27,2.930502892,-0.09576806426,9.538499832
2022-09-04,11:09:42,3.007117271,-0.2011129409,9.43315506
2022-09-04,11:09:58,2.940079689,-0.1340752989,9.54807663
2022-09-04,11:10:13,2.968810081,-0.07661445439,9.500192642
2022-09-04,11:10:28,2.978386879,-0.1628057212,9.557653427
2022-09-04,11:10:43,2.959233284,-0.1149216816,9.50976944
2022-09-04,11:10:58,2.959233284,-0.1340752989,9.567230225
2022-09-04,11:11:13,2.920926094,-0.1532289088,9.50976944
2022-09-04,11:11:28,2.959233284,-0.08619125932,9.528923035
2022-09-04,11:11:43,2.978386879,-0.1628057212,9.490615845
2022-09-04,11:11:58,2.643198729,-0.3447650373,9.567230225
2022-09-04,11:12:13,2.681505919,-0.2585737705,9.528923035
2022-09-04,11:12:28,2.691082716,-0.3543418646,9.576807022
2022-09-04,11:12:43,2.652775526,-0.3639186621,9.567230225
2022-09-04,11:12:58,2.681505919,-0.2968810201,9.58638382
2022-09-04,11:13:13,2.624045134,-0.2681505978,9.605537415
2022-09-04,11:13:28,2.604891539,-0.3447650373,9.576807022
2022-09-04,11:13:43,2.547430515,-0.2777273953,9.634267807
2022-09-04,11:13:58,2.576161146,-0.2968810201,9.643844604
2022-09-04,11:14:13,2.480392933,-0.2585737705,9.682151794
2022-09-04,11:14:28,2.461239338,-0.2681505978,9.634267807
2022-09-04,11:14:43,2.499546528,-0.3256114423,9.682151794
2022-09-04,11:14:58,2.52827692,-0.2394201756,9.662998199
2022-09-04,11:15:14,2.499546528,-0.248996973,9.62469101
2022-09-04,11:15:29,2.480392933,-0.2873041928,9.643844604
2022-09-04,11:15:44,2.461239338,-0.2202665508,9.615114212
2022-09-04,11:15:59,2.48996973,-0.2777273953,9.62469101
2022-09-04,11:16:14,2.422932148,-0.2873041928,9.567230225
2022-09-04,11:16:29,2.480392933,-0.316034615,9.672574997
2022-09-04,11:16:44,2.442085743,-0.2298433632,9.730035782
2022-09-04,11:16:59,2.461239338,-0.248996973,9.720458984
2022-09-04,11:17:14,2.461239338,-0.1915361285,9.615114212
2022-09-04,11:17:29,2.394201756,-0.2011129409,10.0269165
2022-09-04,11:17:44,2.480392933,-0.2681505978,9.595960617
2022-09-04,11:17:59,2.394201756,-0.2394201756,9.595960617
2022-09-04,11:18:14,2.45166254,-0.1915361285,9.58638382
2022-09-04,11:18:29,2.432508945,-0.2394201756,9.634267807
2022-09-04,11:18:44,2.45166254,-0.2394201756,9.739612579
2022-09-04,11:18:59,2.422932148,-0.2585737705,9.682151794
2022-09-04,11:19:14,2.422932148,-0.2873041928,9.749189377
2022-09-04,11:19:29,2.375048161,-0.3543418646,9.739612579
2022-09-04,11:19:44,2.442085743,-0.2968810201,9.701305389
2022-09-04,11:19:59,2.327163935,-0.316034615,9.605537415
2022-09-04,11:20:14,2.336740971,-0.3256114423,9.643844604
2022-09-04,11:20:30,2.317587137,-0.3543418646,9.682151794
2022-09-04,11:20:45,2.327163935,-0.2585737705,9.701305389
2022-09-04,11:21:00,2.279279947,-0.2298433632,9.615114212
2022-09-04,11:21:15,2.260126352,-0.2777273953,9.643844604
2022-09-04,11:21:30,2.355894566,-0.2968810201,9.653421402
2022-09-04,11:21:45,2.279279947,-0.2873041928,9.62469101
2022-09-04,11:22:00,2.279279947,-0.316034615,9.662998199
2022-09-04,11:22:15,2.240972757,-0.3064578176,9.730035782
2022-09-04,11:22:30,2.260126352,-0.2777273953,9.672574997
2022-09-04,11:22:45,2.26970315,-0.3351882398,9.672574997
2022-09-04,11:23:00,2.317587137,-0.3256114423,9.691728592
2022-09-04,11:23:15,2.346317768,-0.248996973,9.643844604
2022-09-04,11:23:30,2.26970315,-0.2681505978,9.682151794
2022-09-04,11:23:45,2.298433542,-0.2585737705,9.615114212
2022-09-04,11:24:00,2.279279947,-0.2873041928,9.672574997
2022-09-04,11:24:15,2.288856745,-0.2968810201,9.672574997
2022-09-04,11:24:30,2.298433542,-0.3351882398,9.653421402
2022-09-04,11:24:46,2.260126352,-0.3351882398,9.682151794
2022-09-04,11:25:01,2.41335535,-0.2394201756,9.682151794
2022-09-04,11:26:56,1.580173135,0.03830722719,9.758766174
2022-09-04,11:31:38,1.541865945,0.1532289088,9.768342972
2022-09-04,11:32:16,1.589749932,0.1053448766,9.835380554
2022-09-04,11:34:00,1.551442742,0.1149216816,9.806650162
2022-09-04,11:34:15,0.0287304204,3.505111217,9.059659004
2022-09-04,11:34:31,0.7757213712,4.031835556,8.81066227
2022-09-04,11:34:46,2.23139596,4.673481941,8.839392662
2022-09-04,11:35:01,0.3064578176,-0.4022258818,9.902418137
2022-09-04,11:35:16,0.2681505978,-0.3351882398,9.911994934
2022-09-04,11:35:31,0.2777273953,-0.383072257,9.854534149
2022-09-04,11:35:46,0.3351882398,-0.3447650373,9.902418137
2022-09-04,11:36:01,0.3447650373,-0.2777273953,9.825803757
2022-09-04,11:36:16,0.3256114423,-0.2968810201,9.864110947
2022-09-04,11:36:31,0.2968810201,-0.3256114423,9.873687744
2022-09-04,11:37:09,0.2873041928,-0.3543418646,9.825803757
2022-09-04,11:40:08,0.2873041928,-0.383072257,9.921571732
2022-09-04,11:45:32,0.2968810201,-0.3447650373,9.825803757
2022-09-04,11:46:16,0.383072257,-0.4213795066,9.979032516
2022-09-04,11:47:14,0.383072257,-0.4501099288,9.931148529
2022-09-04,11:47:43,0.3447650373,-0.4405331016,9.921571732
2022-09-04,11:48:09,0.3926490843,-0.4405331016,9.806650162
2022-09-04,11:48:40,0.3926490843,-0.4405331016,9.883264542
2022-09-04,11:49:41,0.3256114423,-0.4501099288,9.883264542
2022-09-04,11:50:09,0.3543418646,-0.4405331016,9.892841339
2022-09-04,11:50:32,0.3734954596,-0.383072257,9.883264542
2022-09-04,11:51:15,0.4022258818,-0.4309563041,9.873687744
2022-09-04,11:51:44,0.3447650373,-0.4213795066,9.911994934
2022-09-04,11:52:06,0.3351882398,-0.4213795066,9.873687744
2022-09-04,11:53:03,0.3639186621,-0.4979939461,9.873687744
2022-09-04,11:53:53,0.3639186621,-0.3926490843,9.835380554
2022-09-04,11:54:17,0.3064578176,-0.4118026793,9.844957352
2022-09-04,11:55:38,0.3734954596,-0.4213795066,9.902418137
2022-09-04,11:56:53,0.3447650373,-0.4118026793,9.883264542
2022-09-04,11:57:16,0.4022258818,-0.4309563041,9.921571732
2022-09-04,11:57:31,0.4213795066,-0.4405331016,9.873687744
2022-09-04,11:57:46,0.4596867263,-0.4405331016,9.911994934
2022-09-04,11:58:51,0.3112462163,-0.4022258818,9.873687744
2022-09-04,11:59:06,0.4884171486,-0.4118026793,9.931148529
2022-09-04,11:59:21,0.4213795066,-0.3639186621,9.835380554
2022-09-04,11:59:36,0.383072257,-0.3351882398,9.864110947
2022-09-04,11:59:51,0.4213795066,-0.3351882398,9.931148529
2022-09-04,12:00:06,0.4022258818,-0.3734954596,9.873687744
2022-09-04,12:00:21,0.2968810201,-0.4118026793,9.883264542
2022-09-04,12:00:36,0.3543418646,-0.4022258818,9.902418137
2022-09-04,12:00:51,0.4309563041,-0.3256114423,9.940725327
2022-09-04,12:01:06,0.316034615,-0.3734954596,9.883264542
2022-09-04,12:01:21,0.3734954596,-0.4118026793,9.959878922
2022-09-04,12:01:36,0.3926490843,-0.3543418646,9.883264542
2022-09-04,12:01:51,0.4022258818,-0.3543418646,9.921571732
2022-09-04,12:02:06,0.383072257,-0.3447650373,9.844957352
2022-09-04,12:02:21,0.4213795066,-0.3734954596,9.950302124
2022-09-04,12:02:36,0.3351882398,-0.383072257,9.844957352
2022-09-04,12:02:51,0.4022258818,-0.3543418646,9.892841339
2022-09-04,12:03:06,0.4501099288,-0.3543418646,9.911994934
2022-09-04,12:03:21,0.3734954596,-0.3734954596,9.931148529
2022-09-04,12:03:36,0.4022258818,-0.3543418646,9.902418137
2022-09-04,12:03:52,0.4596867263,-0.2968810201,9.911994934
2022-09-04,12:04:07,0.3926490843,-0.3447650373,9.854534149
2022-09-04,12:04:22,0.383072257,-0.3064578176,9.911994934
2022-09-04,12:04:37,0.4309563041,-0.3639186621,9.873687744
2022-09-04,12:04:52,0.3734954596,-0.3926490843,9.864110947
2022-09-04,12:05:07,0.3639186621,-0.3639186621,9.816226959
2022-09-04,12:05:22,0.3447650373,-0.3351882398,9.931148529
2022-09-04,12:05:37,0.4596867263,-0.3543418646,9.844957352
2022-09-04,12:05:52,0.4213795066,-0.3447650373,9.825803757
2022-09-04,12:06:07,0.3926490843,-0.3543418646,9.844957352
2022-09-04,12:06:22,0.3734954596,-0.3639186621,9.844957352
2022-09-04,12:06:37,0.3447650373,-0.3734954596,9.883264542
2022-09-04,12:06:52,0.3351882398,-0.3734954596,9.873687744
2022-09-04,12:07:07,0.3543418646,-0.3351882398,9.844957352
2022-09-04,12:07:22,0.3926490843,-0.383072257,9.854534149
2022-09-04,12:07:37,0.3926490843,-0.383072257,9.940725327
2022-09-04,12:07:52,9.921571732,-0.1244984865,1.63763392
2022-09-04,12:08:07,-0.8619126081,1.465251446,9.701305389
2022-09-04,12:08:22,0.3639186621,-0.09576806426,9.854534149
2022-09-04,12:08:37,0.3256114423,-0.08619125932,9.911994934
2022-09-04,12:08:52,9.797073364,-0.2298433632,1.991975784
2022-09-04,12:09:07,0.3543418646,-0.1436520964,9.825803757
2022-09-04,12:09:22,0.4405331016,-0.06703764945,9.931148529
2022-09-04,12:09:37,0.4309563041,-0.1244984865,9.892841339
2022-09-04,12:09:52,0.3926490843,0,9.959878922
2022-09-04,12:10:07,0.4309563041,-0.07661445439,9.959878922
2022-09-04,12:10:23,0.4022258818,-0.1244984865,9.892841339
2022-09-04,12:10:38,0.3447650373,-0.009576806799,9.911994934
2022-09-04,12:10:53,0.3639186621,-0.08619125932,9.873687744
2022-09-04,12:11:08,0.3543418646,-0.07661445439,9.835380554
2022-09-04,12:11:23,0.3926490843,-0.09576806426,9.883264542
2022-09-04,12:11:38,0.4118026793,-0.09576806426,9.825803757
2022-09-04,12:11:53,0.4309563041,-0.08619125932,9.864110947
2022-09-04,12:12:08,0.3639186621,-0.09576806426,9.931148529
2022-09-04,12:12:23,0.3256114423,-0.04788403213,9.864110947
2022-09-04,12:12:38,0.3926490843,-0.05746084079,9.883264542
2022-09-04,12:12:53,0.3926490843,-0.03830722719,9.911994934
2022-09-04,12:13:08,0.3734954596,-0.0191536136,9.873687744
2022-09-04,12:13:23,0.3926490843,0.0191536136,9.883264542
2022-09-04,12:13:38,0.3926490843,-0.03830722719,9.950302124
2022-09-04,12:13:53,0.4596867263,-0.05746084079,9.854534149
2022-09-04,12:14:08,0.3734954596,-0.1149216816,9.835380554
2022-09-04,12:14:23,0.3734954596,-0.05746084079,9.873687744
2022-09-04,12:14:38,9.50976944,3.485957623,0.383072257
2022-09-04,12:14:53,-1.436521053,-1.446097851,9.50976944
2022-09-04,12:15:08,10.0556469,-4.242525578,-6.971915245
2022-09-04,12:15:23,0.1723825186,2.336740971,9.768342972
2022-09-04,12:15:38,0.2873041928,2.806004286,9.605537415
2022-09-04,12:15:54,-0.04788403213,1.139639974,10.00776291
2022-09-04,12:16:09,0.4596867263,-0.181959331,9.835380554
2022-09-04,12:17:55,0.4979939461,-0.1340752989,9.873687744
2022-09-04,12:22:17,-4.146757126,-3.19865346,7.527369976
2022-09-04,12:22:46,0.2777273953,2.987963676,9.902418137
2022-09-04,12:23:01,-0.1053448766,0.7661445141,11.09951878
2022-09-04,12:23:16,-1.685518026,3.150769472,9.174580574
2022-09-04,12:23:31,-3.897760391,3.208230257,10.00776291
2022-09-04,12:23:46,-4.453215122,7.967903137,-2.710236311
2022-09-04,12:24:01,-7.163451672,5.774814606,-2.930502892
2022-09-04,12:24:16,-6.02381134,6.588842869,-4.165910721
2022-09-04,12:24:31,-7.086836815,5.669469833,-2.624045134
2022-09-04,12:24:46,-5.717353821,5.114014626,-4.711789131
2022-09-04,12:25:01,-3.888183594,8.360552788,-1.752555609
2022-09-04,12:25:22,-6.157886982,6.129156113,-3.763684988
2022-09-04,12:26:03,-4.434061527,8.628703117,-0.5267243981
2022-09-04,12:26:40,-6.83784008,6.943184853,0.1149216816
2022-09-04,12:26:55,-3.658340216,7.95832634,-3.945644379
2022-09-04,12:27:10,-1.800439715,9.088389397,-1.417367458
2022-09-04,12:27:59,-4.319139957,7.738059998,-3.150769472
2022-09-04,12:28:42,-3.150769472,8.676587105,-2.604891539
2022-09-04,12:29:45,-4.453215122,8.082824707,-2.509123325
2022-09-04,12:30:40,-4.118026733,8.896853447,0.03830722719
2022-09-04,12:31:42,-4.23294878,7.460332394,0.9481038451
2022-09-04,12:31:57,0.2968810201,-0.07661445439,9.854534149
2022-09-04,12:33:38,0.2873041928,-0.08619125932,9.806650162
2022-09-04,12:35:24,1.484405041,4.213795185,8.743624687
2022-09-04,12:35:40,2.279279947,-2.767697096,9.375694275
2022-09-04,12:35:56,0.5267243981,4.089296341,8.858546257
2022-09-04,12:36:11,0.2585737705,4.175487995,8.858546257
2022-09-04,12:36:26,0.8906430602,4.683058739,9.030928612
2022-09-04,12:36:41,0.4692635238,4.529829502,8.408436775
2022-09-04,12:36:56,0.4213795066,4.606443882,8.264783859
2022-09-04,12:37:11,0.7086837292,4.50109911,8.38928318
2022-09-04,12:37:26,-1.982398987,-4.46279192,8.599972725
2022-09-04,12:37:41,-1.934514999,1.426944256,11.71243477
2022-09-04,12:37:56,1.685518026,4.127603531,8.523358345
2022-09-04,12:38:11,1.589749932,4.012681961,8.781931877
2022-09-04,12:38:26,1.426944256,3.208230257,9.385271072
2022-09-04,12:38:42,1.359906554,3.169923067,9.241618156
2022-09-04,12:38:57,1.915361404,3.41892004,9.174580574
2022-09-04,12:39:12,1.321599364,2.56658411,9.404424667
2022-09-04,12:39:27,1.723825216,2.41335535,9.921571732
2022-09-04,12:39:42,1.493981838,2.537853718,9.136273384
2022-09-04,12:39:57,1.235408068,2.45166254,9.126696587
2022-09-04,12:40:12,1.302445769,3.141192675,9.653421402
2022-09-04,12:40:27,1.101332784,3.41892004,9.165003777
2022-09-04,12:40:42,1.695094824,2.700659513,10.08437729
2022-09-04,12:40:57,1.369483352,3.112462282,9.385271072
2022-09-04,12:41:12,1.350329757,3.055001259,9.653421402
2022-09-04,12:41:27,0.3351882398,3.303998232,9.050082207
2022-09-04,12:41:42,0.517147541,3.275267839,9.174580574
2022-09-04,12:41:57,0.3256114423,1.647210717,11.32936287
2022-09-04,12:42:12,2.480392933,1.838746905,9.576807022
2022-09-04,12:42:27,2.30801034,1.78128612,10.16099167
2022-09-04,12:42:42,2.336740971,1.742978811,9.490615845
2022-09-04,12:42:57,2.375048161,1.723825216,9.481039047
2022-09-04,12:43:13,2.432508945,1.723825216,9.50976944
2022-09-04,12:43:28,2.509123325,1.723825216,9.528923035
2022-09-04,12:43:43,2.461239338,1.723825216,9.011775017
2022-09-04,12:43:58,0.4309563041,4.960785866,8.063671112
2022-09-04,12:44:13,0.1723825186,6.205770969,7.316680431
2022-09-04,12:44:28,0.6033388376,4.884171486,8.197746277
2022-09-04,12:44:43,0.7182605267,4.817133904,8.513781548
2022-09-04,12:44:58,0.0287304204,-0.0287304204,9.873687744
2022-09-04,12:45:23,0.09576806426,0,9.825803757
2022-09-04,12:46:32,0.1244984865,0.009576806799,9.835380554
2022-09-04,12:48:50,0.1436520964,-0.0191536136,9.931148529
2022-09-04,12:52:45,0.1244984865,0,9.854534149
2022-09-04,12:56:50,0.1244984865,-0.04788403213,9.931148529
2022-09-04,12:59:21,0.3064578176,1.742978811,9.47146225
2022-09-04,12:59:36,0.8523358107,2.260126352,9.864110947
2022-09-04,12:59:51,0.2394201756,2.288856745,9.576807022
2022-09-04,13:00:07,-3.964797974,0.2394201756,15.52400398
2022-09-04,13:00:22,0.04788403213,4.558559895,11.25274754
2022-09-04,13:00:52,-1.292868972,-10.20887566,-2.049436569
2022-09-04,13:01:25,2.346317768,-2.978386879,-1.608903527
2022-09-04,13:02:06,1.101332784,-7.125144482,-1.953668594
2022-09-04,13:02:51,0.2585737705,-9.078812599,-13.95340729
2022-09-04,13:04:37,3.897760391,-7.201758862,0.4788403511
2022-09-04,13:07:55,2.56658411,-9.58638382,0.4213795066
2022-09-04,13:08:56,1.072602391,-9.768342972,0.9097966552
2022-09-04,13:12:14,-0.1915361285,0.1915361285,-9.730035782
2022-09-04,13:18:47,-0.3447650373,-0.316034615,-9.701305389
2022-09-04,13:22:08,-0.4788403511,-4.30956316,-8.532935143
2022-09-04,13:22:25,0.181959331,0.04788403213,9.835380554
2022-09-04,13:23:16,0.2585737705,0.1053448766,9.902418137
2022-09-04,13:28:34,-3.282450438,-2.956839085,-6.643909931
2022-09-04,13:32:17,0.2011129409,-7.594407558,1.455674648
2022-09-04,13:38:41,-0.09576806426,-0.4596867263,9.816226959
2022-09-04,13:39:14,7.350199223,6.105214119,-0.2011129409
2022-09-04,13:39:29,-2.298433542,-1.063025594,7.374141216
2022-09-04,13:39:44,0.6512228847,8.963891029,3.208230257
2022-09-04,13:39:59,2.059013367,9.327810287,1.963245392
2022-09-04,13:40:14,1.216254473,8.84896946,4.003105164
2022-09-04,13:40:29,1.398213744,9.299078941,2.355894566
2022-09-04,13:40:44,1.00556469,9.538499832,0.7757213712
2022-09-04,13:40:59,1.426944256,9.35654068,1.934514999
2022-09-04,13:41:14,1.59932673,9.500192642,1.091755986
2022-09-04,13:41:29,1.503558636,9.481039047,1.18752408
2022-09-04,13:41:44,1.570596337,9.500192642,1.484405041
2022-09-04,13:41:59,1.455674648,9.385271072,1.273715258
2022-09-04,13:42:15,1.063025594,9.528923035,1.493981838
2022-09-04,13:42:30,1.177947283,9.47146225,1.675941229
2022-09-04,13:42:45,2.56658411,3.38061285,8.935160637
2022-09-04,13:43:00,2.480392933,7.747636795,5.621585369
2022-09-04,13:43:15,2.030282974,8.676587105,3.916913986
2022-09-04,13:43:30,-3.581725836,5.669469833,6.866570473
2022-09-04,13:43:45,1.072602391,9.050082207,3.926490784
2022-09-04,13:44:00,1.149216771,2.221819162,9.62469101
2022-09-04,13:44:15,0.5937620401,8.686163902,4.46279192
2022-09-04,13:44:30,1.628057122,9.43315506,1.551442742
2022-09-04,13:44:45,0.3447650373,9.346963882,2.978386879
2022-09-04,13:45:00,0.3926490843,9.50976944,1.991975784
2022-09-04,13:45:15,-0.7852981687,9.222464561,2.777273893
2022-09-04,13:45:30,-0.3639186621,8.77235508,3.677493811
2022-09-04,13:45:45,-0.4405331016,9.059659004,2.375048161
2022-09-04,13:46:00,0.1915361285,9.069235802,3.313575268
2022-09-04,13:46:15,1.446097851,10.53448772,3.983951569
2022-09-04,13:46:30,1.130063176,9.021351814,3.562572241
2022-09-04,13:46:45,1.091755986,8.801085472,4.079719543
2022-09-04,13:47:00,-1.072602391,4.50109911,6.91445446
2022-09-04,13:47:15,9.299078941,0.3351882398,3.581725836
2022-09-04,13:47:30,9.165003777,0.1628057212,4.012681961
2022-09-04,13:47:45,9.097966194,0.08619125932,4.290409565
2022-09-04,13:48:00,9.040505409,0.1436520964,4.185064793
2022-09-04,13:48:15,8.829815865,0.2202665508,4.472368717
2022-09-04,13:48:30,8.599972725,0.1532289088,4.979939461
2022-09-04,13:48:45,8.916007042,0.0191536136,4.453215122
2022-09-04,13:49:00,9.011775017,-0.0191536136,4.175487995
2022-09-04,13:49:16,8.743624687,0.07661445439,5.16189909
2022-09-04,13:49:31,8.762778282,0.1532289088,4.692635536
2022-09-04,13:49:46,8.906430244,-0.03830722719,4.357447147
2022-09-04,13:50:01,8.877699852,-0.1244984865,4.357447147
2022-09-04,13:50:16,8.896853447,-0.03830722719,4.596867085
2022-09-04,13:50:31,8.916007042,-0.06703764945,4.587290287
2022-09-04,13:50:46,10.01733971,-0.3256114423,1.359906554
2022-09-04,13:51:01,9.643844604,-0.4501099288,2.738966703
2022-09-04,13:51:16,9.538499832,-0.4596867263,2.892195702
2022-09-04,13:51:31,8.082824707,-0.06703764945,5.391742229
2022-09-04,13:51:46,9.289502144,-0.3064578176,3.744531393
2022-09-04,13:52:01,9.078812599,-0.4118026793,4.204218388
2022-09-04,13:52:16,9.643844604,-0.383072257,2.336740971
2022-09-04,13:52:31,9.461885452,-0.2968810201,3.303998232
2022-09-04,13:52:46,9.375694275,-0.316034615,3.667917013
2022-09-04,13:53:01,9.308655739,-0.3734954596,3.744531393
2022-09-04,13:53:16,9.208099365,-0.2681505978,3.928884983
2022-09-04,13:53:31,8.360552788,-0.2298433632,5.497087002
2022-09-04,13:53:46,9.385271072,-0.0287304204,3.687070608
2022-09-04,13:54:01,9.557653427,-0.08619125932,3.390189648
2022-09-04,13:54:16,9.397241592,-0.07422025502,3.447650433
2022-09-04,13:54:31,9.442731857,-0.1436520964,3.801992416
2022-09-04,13:54:46,9.385271072,-0.1532289088,3.572149038
2022-09-04,13:55:01,9.758766174,0.06703764945,2.365471363
2022-09-04,13:55:16,9.672574997,0.1532289088,3.150769472
2022-09-04,13:55:31,9.557653427,0.2394201756,2.930502892
2022-09-04,13:55:47,9.481039047,0.2585737705,3.45722723
2022-09-04,13:56:02,9.346963882,0.2298433632,3.524264812
2022-09-04,13:56:17,9.279925346,0.1628057212,4.108449936
2022-09-04,13:56:32,9.203310966,0.1723825186,4.788403511
2022-09-04,13:56:47,9.117119789,0.2585737705,4.204218388
2022-09-04,13:57:02,9.193734169,0.2585737705,4.089296341
2022-09-04,13:57:17,9.136273384,0.3351882398,4.060565948
2022-09-04,13:57:32,9.279925346,0.3351882398,4.012681961
2022-09-04,13:57:47,9.145850182,0.3447650373,3.936067581
2022-09-04,13:58:02,9.126696587,0.2873041928,4.137180328
2022-09-04,13:58:17,9.212887764,0.2873041928,4.328716755
2022-09-04,13:58:32,7.402871609,-0.383072257,5.544970989
2022-09-04,13:58:47,1.78128612,9.385271072,0.4022258818
2022-09-04,13:59:02,1.886630893,9.595960617,0.2585737705
2022-09-04,13:59:17,1.953668594,9.528923035,-0.8236053586
2022-09-04,13:59:32,1.752555609,9.557653427,-0.2873041928
2022-09-04,13:59:47,1.704671621,9.461885452,1.22583127
2022-09-04,14:00:02,1.685518026,9.58638382,-0.06703764945
2022-09-04,14:00:17,3.390189648,9.030928612,2.183511972
2022-09-04,14:00:32,9.672574997,1.043871999,2.260126352
2022-09-04,14:00:47,9.58638382,0.9864110947,2.375048161
2022-09-04,14:01:02,9.739612579,0.3734954596,2.26970315
2022-09-04,14:01:17,9.806650162,0.7852981687,1.848323703
2022-09-04,14:01:32,9.672574997,0.2968810201,2.604891539
2022-09-04,14:01:48,9.54807663,0.5363011956,3.007117271
2022-09-04,14:02:03,9.538499832,0.5650315881,3.227383852
2022-09-04,14:02:18,9.47146225,0.5458779931,3.294421434
2022-09-04,14:02:33,9.701305389,1.455674648,3.878606796
2022-09-04,14:02:48,8.647856712,0.1723825186,5.20020628
2022-09-04,14:03:03,8.523358345,0.4405331016,5.20020628
2022-09-04,14:03:18,8.46589756,0.4884171486,5.343858242
2022-09-04,14:03:33,8.456320763,0.3926490843,5.382165432
2022-09-04,14:03:48,8.599972725,0.4213795066,5.27682066
2022-09-04,14:04:03,8.54251194,0.4022258818,5.35343504
2022-09-04,14:04:18,8.446743965,0.3351882398,5.468356609
2022-09-04,14:04:33,8.456320763,0.181959331,5.487510204
2022-09-04,14:04:48,8.475474358,0.1532289088,5.123591423
2022-09-04,14:05:03,8.494627953,0.2298433632,5.181052685
2022-09-04,14:05:18,8.264783859,0.05746084079,5.573701382
2022-09-04,14:05:33,8.54251194,0.1915361285,4.38617754
2022-09-04,14:05:48,8.054094315,-0.1340752989,5.975927353
2022-09-04,14:06:03,8.07324791,-0.009576806799,5.765237808
2022-09-04,14:06:18,7.776367188,-0.07661445439,6.205770969
2022-09-04,14:06:33,7.393294811,-0.1436520964,6.713341713
2022-09-04,14:06:48,7.450755596,-0.1723825186,6.560112476
2022-09-04,14:07:03,0.6991068721,-0.09576806426,9.854534149
2022-09-04,14:07:37,0.6033388376,-0.2681505978,9.854534149
2022-09-04,14:07:58,0.5841852427,-0.2394201756,9.911994934
2022-09-04,14:09:02,0.4884171486,-0.2298433632,9.835380554
2022-09-04,14:09:32,0.517147541,-0.2202665508,9.911994934
2022-09-04,14:10:41,0.5075707436,-0.2298433632,9.854534149
2022-09-04,14:12:15,0.4596867263,-0.2202665508,9.931148529
2022-09-04,14:14:40,-0.4788403511,0.2011129409,9.902418137
2022-09-04,14:15:22,-0.2873041928,0.06703764945,9.844957352
2022-09-04,14:18:15,-0.2298433632,0.06703764945,9.844957352
2022-09-04,14:20:26,-0.2873041928,0.06703764945,9.854534149
2022-09-04,14:22:08,8.571242332,4.616020679,-2.11647439
2022-09-04,14:22:23,8.236053467,4.999093056,-2.327163935
2022-09-04,14:22:38,9.854534149,0.06703764945,1.991975784
2022-09-04,14:22:53,9.835380554,0.05746084079,2.557007313
2022-09-04,14:23:08,9.710882187,0.1532289088,2.250549555
2022-09-04,14:23:23,7.450755596,6.454767704,-1.379060149
2022-09-04,14:23:38,9.481039047,0.248996973,3.19865346
2022-09-04,14:23:54,9.461885452,0.6129156351,3.428496838
2022-09-04,14:24:17,3.275267839,-8.829815865,0.2298433632
2022-09-04,14:24:56,3.102885485,-9.088389397,-0.0191536136
2022-09-04,14:25:17,-3.782838583,3.505111217,8.485051155
2022-09-04,14:25:32,-3.655946016,3.481169224,8.140285492
2022-09-04,14:25:47,-1.790862918,3.667917013,8.647856712
2022-09-04,14:26:02,-0.9002198577,3.476380825,9.366117477
2022-09-04,14:26:17,-0.5937620401,3.878606796,-1.723825216
2022-09-04,14:26:32,-1.379060149,4.510675907,8.58081913
2022-09-04,14:26:48,-1.474828243,4.290409565,8.552088737
2022-09-04,14:27:03,-2.078166962,5.27682066,7.824251175
2022-09-04,14:27:18,-2.145204782,4.759673119,8.149862289
2022-09-04,14:27:33,-1.944091797,4.003105164,8.676587105
2022-09-04,14:27:48,-0.248996973,4.893748283,8.408436775
2022-09-04,14:28:03,-2.11647439,3.677493811,8.6957407
2022-09-04,14:28:18,-0.5841852427,3.744531393,9.117119789
2022-09-04,14:28:33,-1.800439715,3.323152065,12.5743475
2022-09-04,14:28:48,-3.390189648,3.821146011,8.178592682
2022-09-04,14:29:03,-3.284844637,3.706224203,8.35097599
2022-09-04,14:29:18,-3.112462282,4.108449936,8.322244644
2022-09-04,14:29:33,-3.064578056,4.003105164,8.283937454
2022-09-04,14:29:48,-2.968810081,3.658340216,8.379706383
2022-09-04,14:30:03,-3.055001259,3.064578056,8.494627953
2022-09-04,14:30:18,-3.639186621,3.074155092,8.494627953
2022-09-04,14:30:33,-4.395754337,2.920926094,8.283937454
2022-09-04,14:30:48,-3.428496838,3.466804028,8.303091049
2022-09-04,14:31:03,-3.514688015,3.600879431,8.274360657
2022-09-04,14:31:18,0.8810662031,4.041412354,8.408436775
2022-09-04,14:31:33,2.365471363,3.447650433,9.050082207
2022-09-04,14:31:48,0.7565677166,1.991975784,9.615114212
2022-09-04,14:32:03,2.135627985,2.681505919,9.31823349
2022-09-04,14:32:18,2.346317768,2.068590164,9.461885452
2022-09-04,14:32:34,1.924938202,4.19464159,8.714894295
2022-09-04,14:32:49,1.972822189,4.070142746,8.839392662
2022-09-04,14:33:04,1.915361404,4.098873138,8.791508675
2022-09-04,14:33:19,1.944091797,3.916913986,8.906430244
2022-09-04,14:33:34,2.671929121,3.045424461,8.532935143
2022-09-04,14:33:49,0.1723825186,4.797980309,8.58081913
2022-09-04,14:34:04,0.2968810201,4.778826714,8.322244644
2022-09-04,14:34:19,0.3447650373,4.778826714,8.523358345
2022-09-04,14:34:34,0.7661445141,4.730942726,7.757213593
2022-09-04,14:34:49,-2.317587137,0.3734954596,10.11310768
2022-09-04,14:35:04,0.8427590132,4.108449936,9.634267807
2022-09-04,14:35:19,-0.2202665508,3.706224203,9.232041359
2022-09-04,14:35:34,1.034295082,4.108449936,8.379706383
2022-09-04,14:35:49,1.924938202,4.328716755,8.647856712
2022-09-04,14:36:04,1.944091797,4.127603531,8.667010307
2022-09-04,14:36:19,2.394201756,8.236053467,6.493074894
2022-09-04,14:36:34,1.053448796,5.16189909,8.303091049
2022-09-04,14:36:49,0.2106897533,3.591302633,9.538499832
2022-09-04,14:37:04,0.7374141216,5.363011837,8.456320763
2022-09-04,14:37:19,0.2394201756,4.146757126,9.097966194
2022-09-04,14:37:34,0.6512228847,5.698200226,7.508216381
2022-09-04,14:37:50,4.453215122,6.464344501,5.698200226
2022-09-04,14:38:05,3.112462282,6.665457726,4.797980309
2022-09-04,14:38:20,2.30801034,6.110002518,7.393294811
2022-09-04,14:38:35,2.45166254,6.789956093,6.636727333
2022-09-04,14:38:50,2.135627985,6.320692539,7.048529625
2022-09-04,14:39:05,-0.2394201756,1.570596337,8.485051155
2022-09-04,14:39:20,-1.56101954,2.777273893,9.308655739
2022-09-04,14:39:35,1.359906554,-12.89995861,-0.1436520964
2022-09-04,14:40:14,3.035847664,-8.46589756,4.46279192
2022-09-04,14:41:01,1.647210717,-8.6957407,4.472368717
2022-09-04,14:45:15,1.771709204,-3.179499865,10.06522369
2022-09-04,14:45:30,-4.673481941,8.331821442,0.2202665508
2022-09-04,14:45:46,-4.252102375,7.910442352,5.094861031
2022-09-04,14:46:22,0.7757213712,1.455674648,11.0133276
2022-09-04,14:46:38,-0.6991068721,5.851428986,7.642292023
2022-09-04,14:46:53,0.2873041928,-0.05746084079,9.931148529
2022-09-04,14:47:35,1.89620769,-9.662998199,-2.633621931
2022-09-04,14:48:58,4.5394063,-6.885724068,-0.2202665508
2022-09-04,14:49:32,2.432508945,-8.983044624,0.5746083856
2022-09-04,14:50:21,5.487510204,-8.312667847,0.6320692301
2022-09-04,14:52:29,-2.221819162,-15.41865921,3.438073635
2022-09-04,14:53:45,-0.6703764796,4.912901878,8.264783859
2022-09-04,14:54:00,-1.771709204,1.168370485,9.605537415
2022-09-04,14:54:15,-0.05746084079,2.710236311,9.461885452
2022-09-04,14:54:30,4.673481941,-7.80509758,-3.725377798
2022-09-04,14:54:45,4.654327869,-7.757213593,-4.108449936
2022-09-04,14:55:00,4.692635536,-7.776367188,-3.936067581
2022-09-04,14:55:15,4.644751072,-7.80509758,-4.031835556
2022-09-04,14:55:30,4.721365929,-7.80509758,-4.242525578
2022-09-04,14:55:45,4.635174274,-7.747636795,-4.367023945
2022-09-04,14:56:00,4.692635536,-7.747636795,-4.520252705
2022-09-04,14:56:15,4.616020679,-7.80509758,-4.050989151
2022-09-04,14:56:30,4.635174274,-7.785943985,-4.299986362
2022-09-04,14:56:45,4.673481941,-7.814674377,-4.299986362
2022-09-04,14:57:00,4.644751072,-7.776367188,-4.290409565
2022-09-04,14:57:16,4.625597477,-7.80509758,-4.548983097
2022-09-04,14:57:31,4.625597477,-7.76679039,-4.185064793
2022-09-04,14:57:46,4.635174274,-7.795520782,-4.031835556
2022-09-04,14:58:01,4.625597477,-7.814674377,-4.031835556
2022-09-04,14:58:16,4.644751072,-7.824251175,-4.367023945
2022-09-04,14:58:31,4.616020679,-7.747636795,-4.520252705
2022-09-04,14:58:46,4.616020679,-7.757213593,-4.060565948
2022-09-04,14:59:01,4.654327869,-7.738059998,-4.022258759
2022-09-04,14:59:16,4.663905144,-7.757213593,-3.907337189
2022-09-04,14:59:31,4.625597477,-7.814674377,-4.108449936
2022-09-04,14:59:46,4.616020679,-7.84340477,-4.127603531
2022-09-04,15:00:01,4.750096321,-7.84340477,-4.127603531
2022-09-04,15:00:16,4.702212334,-7.747636795,-4.137180328
2022-09-04,15:00:31,4.644751072,-7.785943985,-4.041412354
2022-09-04,15:00:46,4.596867085,-7.795520782,-3.849876404
2022-09-04,15:01:01,4.654327869,-7.833827972,-3.840299606
2022-09-04,15:01:25,4.654327869,-7.80509758,-4.242525578
2022-09-04,15:01:40,4.683058739,-7.80509758,-3.715801001
2022-09-04,15:01:55,4.57771349,-7.738059998,-4.079719543
2022-09-04,15:02:10,4.606443882,-7.833827972,-4.213795185
2022-09-04,15:02:25,4.625597477,-7.776367188,-4.050989151
2022-09-04,15:02:40,4.625597477,-7.862558365,-3.916913986
2022-09-04,15:02:55,4.625597477,-7.824251175,-4.118026733
2022-09-04,15:03:10,4.625597477,-7.795520782,-4.089296341
2022-09-04,15:03:26,4.635174274,-7.824251175,-3.696647406
2022-09-04,15:03:41,4.683058739,-7.738059998,-4.328716755
2022-09-04,15:03:56,4.616020679,-7.76679039,-4.146757126
2022-09-04,15:04:11,4.644751072,-7.709329605,-4.299986362
2022-09-04,15:04:26,4.616020679,-7.891288757,-3.715801001
2022-09-04,15:04:41,4.616020679,-7.7284832,-4.19464159
2022-09-04,15:04:56,4.692635536,-7.80509758,-3.840299606
2022-09-04,15:05:11,4.587290287,-7.80509758,-3.629609823
2022-09-04,15:05:26,4.606443882,-7.814674377,-3.964797974
2022-09-04,15:05:41,4.673481941,-7.814674377,-4.050989151
2022-09-04,15:05:56,4.625597477,-7.84340477,-4.414907932
2022-09-04,15:06:11,4.596867085,-7.84340477,-4.118026733
2022-09-04,15:06:26,4.606443882,-7.757213593,-4.050989151
2022-09-04,15:06:49,4.57771349,-7.852981567,-4.060565948
2022-09-04,15:07:04,4.606443882,-7.747636795,-4.663905144
2022-09-04,15:07:19,4.57771349,-7.852981567,-3.869029999
2022-09-04,15:07:34,4.568136692,-7.833827972,-4.118026733
2022-09-04,15:07:50,4.568136692,-7.785943985,-4.252102375
2022-09-04,15:08:05,4.453215122,-7.824251175,-4.299986362
2022-09-04,15:08:20,4.616020679,-7.814674377,-3.79241538
2022-09-04,15:08:35,4.721365929,-7.852981567,-3.907337189
2022-09-04,15:08:50,4.57771349,-7.84340477,-3.543418407
2022-09-04,15:09:05,4.778826714,-7.814674377,-3.763684988
2022-09-04,15:09:20,4.529829502,-7.709329605,-4.108449936
2022-09-04,15:09:35,4.606443882,-7.833827972,-4.213795185
2022-09-04,15:09:52,4.5394063,-7.785943985,-4.223371983
2022-09-04,15:10:07,4.596867085,-7.776367188,-3.849876404
2022-09-04,15:10:22,4.644751072,-7.738059998,-4.769249916
2022-09-04,15:10:37,4.548983097,-7.84340477,-4.721365929
2022-09-04,15:10:52,4.587290287,-7.862558365,-4.108449936
2022-09-04,15:11:07,4.663905144,-7.738059998,-3.897760391
2022-09-04,15:11:22,4.568136692,-7.824251175,-4.175487995
2022-09-04,15:11:37,4.673481941,-7.814674377,-3.907337189
2022-09-04,15:11:52,4.568136692,-7.862558365,-4.060565948
2022-09-04,15:12:07,4.596867085,-7.776367188,-4.290409565
2022-09-04,15:12:22,4.616020679,-7.776367188,-4.23294878
2022-09-04,15:12:37,4.57771349,-7.833827972,-4.299986362
2022-09-04,15:12:52,4.587290287,-7.833827972,-4.290409565
2022-09-04,15:13:07,4.596867085,-7.776367188,-4.012681961
2022-09-04,15:13:22,4.596867085,-7.757213593,-4.42448473
2022-09-04,15:13:37,4.548983097,-7.7284832,-4.137180328
2022-09-04,15:13:52,4.663905144,-7.833827972,-4.079719543
2022-09-04,15:14:07,4.57771349,-7.852981567,-3.945644379
2022-09-04,15:14:22,4.57771349,-7.80509758,-4.472368717
2022-09-04,15:14:37,4.654327869,-7.747636795,-3.955221176
2022-09-04,15:14:52,4.548983097,-7.785943985,-4.19464159
2022-09-04,15:15:07,4.558559895,-7.814674377,-4.146757126
2022-09-04,15:15:22,4.596867085,-7.785943985,-4.165910721
2022-09-04,15:15:37,4.50109911,-7.824251175,-3.658340216
2022-09-04,15:15:52,4.558559895,-7.900865555,-3.859453201
2022-09-04,15:16:07,4.568136692,-7.795520782,-3.964797974
2022-09-04,15:16:23,4.587290287,-7.747636795,-4.098873138
2022-09-04,15:16:38,4.606443882,-7.814674377,-4.23294878
2022-09-04,15:16:53,4.616020679,-7.900865555,-3.313575268
2022-09-04,15:17:08,4.606443882,-7.785943985,-4.223371983
2022-09-04,15:17:31,4.596867085,-7.785943985,-4.42448473
2022-09-04,15:17:46,4.50109911,-7.891288757,-3.974374771
2022-09-04,15:18:01,4.548983097,-7.814674377,-4.079719543
2022-09-04,15:18:16,4.596867085,-7.785943985,-4.089296341
2022-09-04,15:18:32,4.520252705,-7.833827972,-3.983951569
2022-09-04,15:18:47,4.606443882,-7.891288757,-4.23294878
2022-09-04,15:19:02,4.558559895,-7.833827972,-4.204218388
2022-09-04,15:19:17,4.635174274,-7.76679039,-3.916913986
2022-09-04,15:19:32,4.625597477,-7.757213593,-4.30956316
2022-09-04,15:19:47,4.596867085,-7.76679039,-4.558559895
2022-09-04,15:20:02,4.558559895,-7.84340477,-4.060565948
2022-09-04,15:20:17,4.596867085,-7.852981567,-3.763684988
2022-09-04,15:20:32,4.57771349,-7.891288757,-4.089296341
2022-09-04,15:20:47,4.548983097,-7.80509758,-3.888183594
2022-09-04,15:21:02,4.548983097,-7.738059998,-3.744531393
2022-09-04,15:21:17,4.635174274,-7.814674377,-4.223371983
2022-09-04,15:21:32,4.568136692,-7.747636795,-4.070142746
2022-09-04,15:21:47,4.5394063,-7.833827972,-4.338293552
2022-09-04,15:22:02,4.568136692,-7.872135162,-3.648763418
2022-09-04,15:22:17,4.529829502,-7.785943985,-4.261679173
2022-09-04,15:22:32,4.587290287,-7.795520782,-4.070142746
2022-09-04,15:22:56,4.46279192,-7.88171196,-3.907337189
2022-09-04,15:23:11,4.625597477,-7.891288757,-3.964797974
2022-09-04,15:23:26,4.548983097,-7.88171196,-4.30956316
2022-09-04,15:23:41,4.57771349,-7.862558365,-3.773261786
2022-09-04,15:23:56,4.491522312,-7.814674377,-4.127603531
2022-09-04,15:24:11,4.625597477,-7.833827972,-4.175487995
2022-09-04,15:24:26,4.654327869,-7.862558365,-4.30956316
2022-09-04,15:24:41,4.644751072,-7.785943985,-4.204218388
2022-09-04,15:24:56,4.625597477,-7.92001915,-4.127603531
2022-09-04,15:25:11,4.57771349,-7.872135162,-3.687070608
2022-09-04,15:25:26,4.57771349,-7.795520782,-4.108449936
2022-09-04,15:25:41,4.625597477,-7.872135162,-3.945644379
2022-09-04,15:25:56,4.548983097,-7.776367188,-4.185064793
2022-09-04,15:26:11,4.50109911,-7.84340477,-3.801992416
2022-09-04,15:26:26,4.434061527,-7.814674377,-3.591302633
2022-09-04,15:26:41,2.365471363,-7.65186882,1.197100878
2022-09-04,15:26:57,-0.8619126081,3.49553442,9.088389397
2022-09-04,15:27:12,-2.336740971,2.343923569,8.47786808
2022-09-04,15:27:27,-3.734954596,-8.532935143,-1.503558636
2022-09-04,15:27:42,4.673481941,-8.887276649,-0.6033388376
2022-09-04,15:27:57,4.606443882,-8.829815865,-0.8236053586
2022-09-04,15:28:12,4.683058739,-8.820239067,-0.8810662031
2022-09-04,15:28:27,4.683058739,-8.829815865,-0.6224924326
2022-09-04,15:28:42,4.635174274,-8.81066227,-0.5267243981
2022-09-04,15:28:57,4.625597477,-8.77235508,-0.9097966552
2022-09-04,15:29:12,4.606443882,-8.743624687,-1.216254473
2022-09-04,15:29:27,4.654327869,-8.81066227,-0.9672574997
2022-09-04,15:29:42,4.616020679,-8.877699852,-0.6991068721
2022-09-04,15:29:57,4.692635536,-8.81066227,-0.6129156351
2022-09-04,15:30:13,4.663905144,-8.81066227,-0.7661445141
2022-09-04,15:30:28,4.587290287,-8.762778282,-0.4979939461
2022-09-04,15:30:43,4.635174274,-8.753201485,-0.7852981687
2022-09-04,15:30:58,4.57771349,-8.791508675,-0.7086837292
2022-09-04,15:31:13,4.606443882,-8.801085472,-0.7661445141
2022-09-04,15:31:28,4.644751072,-8.81066227,-0.8044517636
2022-09-04,15:31:43,4.740519524,-8.762778282,-1.053448796
2022-09-04,15:31:58,4.654327869,-8.868123055,-0.5458779931
2022-09-04,15:32:13,4.692635536,-8.829815865,-0.3734954596
2022-09-04,15:32:28,4.616020679,-8.839392662,-0.8619126081
2022-09-04,15:32:43,4.654327869,-8.77235508,-1.254561663
2022-09-04,15:32:58,4.644751072,-8.820239067,-0.5841852427
2022-09-04,15:33:13,4.663905144,-8.77235508,-0.4309563041
2022-09-04,15:33:28,4.596867085,-8.916007042,-0.3639186621
2022-09-04,15:33:43,4.644751072,-8.868123055,-0.6033388376
2022-09-04,15:33:58,4.635174274,-8.829815865,-1.292868972
2022-09-04,15:34:13,4.711789131,-8.77235508,-0.4213795066
2022-09-04,15:34:28,4.587290287,-8.753201485,-1.139639974
2022-09-04,15:34:43,4.606443882,-8.781931877,-1.063025594
2022-09-04,15:34:58,4.644751072,-8.839392662,-0.8044517636
2022-09-04,15:35:19,4.625597477,-8.753201485,-0.8236053586
2022-09-04,15:35:34,4.625597477,-8.84896946,-0.8140285611
2022-09-04,15:35:49,4.702212334,-8.791508675,-0.7086837292
2022-09-04,15:36:04,4.635174274,-8.743624687,-1.388636947
2022-09-04,15:36:19,4.596867085,-8.791508675,-1.139639974
2022-09-04,15:36:34,4.711789131,-8.762778282,-0.3734954596
2022-09-04,15:36:49,4.558559895,-8.906430244,-0.2585737705
2022-09-04,15:37:04,4.606443882,-8.77235508,-1.072602391
2022-09-04,15:37:19,4.730942726,-8.724471092,-0.6416460276
2022-09-04,15:37:34,4.616020679,-8.839392662,-0.7661445141
2022-09-04,15:37:49,4.625597477,-8.762778282,-0.4213795066
2022-09-04,15:38:04,4.635174274,-8.84896946,-0.8810662031
2022-09-04,15:38:19,4.587290287,-8.781931877,-0.6895300746
2022-09-04,15:38:34,4.558559895,-8.868123055,-1.541865945
2022-09-04,15:38:49,4.663905144,-8.753201485,-1.22583127
2022-09-04,15:39:04,4.57771349,-8.858546257,-0.7565677166
2022-09-04,15:39:28,4.625597477,-8.801085472,-1.034295082
2022-09-04,15:39:43,4.635174274,-8.791508675,-0.4692635238
2022-09-04,15:39:58,4.711789131,-8.858546257,-0.6224924326
2022-09-04,15:40:13,4.855441093,-8.676587105,-1.838746905
2022-09-04,15:40:28,2.738966703,-9.538499832,-1.177947283
2022-09-04,15:40:43,2.652775526,-9.519346237,-1.292868972
2022-09-04,15:40:58,2.719813108,-9.442731857,-1.139639974
2022-09-04,15:41:13,2.719813108,-9.481039047,-1.120486379
2022-09-04,15:41:28,2.662352324,-9.47146225,-1.254561663
2022-09-04,15:41:43,2.719813108,-9.461885452,-0.9672574997
2022-09-04,15:41:58,2.624045134,-9.50976944,-1.024718285
2022-09-04,15:42:13,2.691082716,-9.43315506,-1.331176162
2022-09-04,15:42:28,2.633621931,-9.423578262,-1.139639974
2022-09-04,15:42:43,2.604891539,-9.47146225,-1.446097851
2022-09-04,15:42:58,2.691082716,-9.490615845,-1.168370485
2022-09-04,15:43:13,2.576161146,-9.538499832,-1.00556469
2022-09-04,15:43:29,2.633621931,-9.404424667,-1.982398987
2022-09-04,15:43:44,2.691082716,-9.519346237,-0.9481038451
2022-09-04,15:43:59,1.130063176,-9.672574997,-1.752555609
2022-09-04,15:44:14,1.206677675,-9.701305389,-1.618480325
2022-09-04,15:44:29,1.139639974,-9.730035782,-1.800439715
2022-09-04,15:44:44,1.206677675,-9.634267807,-1.886630893
2022-09-04,15:44:59,1.216254473,-9.653421402,-2.164358377
2022-09-04,15:45:14,1.149216771,-9.62469101,-1.78128612
2022-09-04,15:45:29,1.168370485,-9.682151794,-1.513135433
2022-09-04,15:45:44,1.197100878,-9.691728592,-1.742978811
2022-09-04,15:45:59,1.235408068,-9.662998199,-1.551442742
2022-09-04,15:46:14,1.139639974,-9.672574997,-2.039859772
2022-09-04,15:46:29,1.149216771,-9.710882187,-1.647210717
2022-09-04,15:46:44,1.177947283,-9.643844604,-1.350329757
2022-09-04,15:46:59,1.168370485,-9.653421402,-1.532289028
2022-09-04,15:47:21,1.149216771,-9.634267807,-1.656787634
2022-09-04,15:47:37,1.130063176,-9.634267807,-1.426944256
2022-09-04,15:47:52,1.18752408,-9.749189377,-1.455674648
2022-09-04,15:48:07,1.177947283,-9.62469101,-1.877054095
2022-09-04,15:48:22,1.149216771,-9.749189377,-1.493981838
2022-09-04,15:48:37,1.091755986,-9.777919769,-1.350329757
2022-09-04,15:48:52,1.235408068,-9.749189377,-1.197100878
2022-09-04,15:49:07,1.139639974,-9.682151794,-1.972822189
2022-09-04,15:49:22,1.158793569,-9.691728592,-1.503558636
2022-09-04,15:49:37,1.22583127,-9.62469101,-1.436521053
2022-09-04,15:49:52,1.120486379,-9.682151794,-1.580173135
2022-09-04,15:50:07,1.139639974,-9.739612579,-1.723825216
2022-09-04,15:50:22,1.101332784,-9.749189377,-1.666364431
2022-09-04,15:50:37,1.072602391,-9.672574997,-2.020706177
2022-09-04,15:50:52,1.177947283,-9.672574997,-1.455674648
2022-09-04,15:51:07,1.101332784,-9.662998199,-1.589749932
2022-09-04,15:51:22,1.101332784,-9.730035782,-1.130063176
2022-09-04,15:51:37,1.110909581,-9.691728592,-1.417367458
2022-09-04,15:51:52,1.149216771,-9.615114212,-1.675941229
2022-09-04,15:52:08,1.81959331,-9.730035782,-0.5458779931
2022-09-04,15:52:23,1.838746905,-9.797073364,-0.8331822157
2022-09-04,15:52:38,1.867477298,-9.777919769,-0.5554547906
2022-09-04,15:52:53,1.905784607,-9.682151794,-0.7469909191
2022-09-04,15:53:08,1.905784607,-9.691728592,0.1149216816
2022-09-04,15:53:23,1.790862918,-9.701305389,-0.4788403511
2022-09-04,15:53:38,1.915361404,-9.701305389,-0.3064578176
2022-09-04,15:53:53,1.829170108,-9.701305389,-0.316034615
2022-09-04,15:54:08,1.934514999,-9.653421402,-0.6320692301
2022-09-04,15:54:23,1.771709204,-9.787496567,-0.7852981687
2022-09-04,15:54:38,1.838746905,-9.682151794,-0.4501099288
2022-09-04,15:54:53,1.944091797,-9.672574997,-0.517147541
2022-09-04,15:55:08,1.886630893,-9.758766174,-0.1149216816
2022-09-04,15:55:23,1.848323703,-9.672574997,-0.4118026793
2022-09-04,15:55:38,1.867477298,-9.682151794,-0.5937620401
2022-09-04,15:55:53,1.915361404,-9.777919769,-0.2011129409
2022-09-04,15:56:08,1.877054095,-9.720458984,-0.4309563041
2022-09-04,15:56:23,1.886630893,-9.643844604,-0.6512228847
2022-09-04,15:56:38,1.905784607,-9.720458984,-0.316034615
2022-09-04,15:56:53,1.924938202,-9.739612579,-0.2968810201
2022-09-04,15:57:08,1.800439715,-9.691728592,-0.3064578176
2022-09-04,15:57:23,1.924938202,-9.758766174,-0.4309563041
2022-09-04,15:57:38,1.8579005,-9.720458984,-0.3447650373
2022-09-04,15:57:53,1.800439715,-9.768342972,-0.5267243981
2022-09-04,15:58:08,1.848323703,-9.682151794,-0.6512228847
2022-09-04,15:58:24,1.8579005,-9.720458984,-0.6607996821
2022-09-04,15:58:39,1.89620769,-9.720458984,-0.4213795066
2022-09-04,15:58:54,1.628057122,5.861005783,7.814674377
2022-09-04,15:59:09,4.338293552,-8.791508675,-1.436521053
2022-09-04,15:59:24,4.27125597,-8.829815865,-1.59932673
2022-09-04,15:59:39,4.328716755,-8.84896946,-1.493981838
2022-09-04,15:59:54,4.27125597,-8.781931877,-1.59932673
2022-09-04,16:00:09,4.299986362,-8.81066227,-1.484405041
2022-09-04,16:00:24,4.30956316,-8.84896946,-1.455674648
2022-09-04,16:00:39,4.30956316,-8.781931877,-1.570596337
2022-09-04,16:00:54,4.319139957,-8.781931877,-2.106897593
2022-09-04,16:01:09,4.328716755,-8.84896946,-1.752555609
2022-09-04,16:01:24,4.290409565,-8.820239067,-1.742978811
2022-09-04,16:01:39,4.328716755,-8.839392662,-1.742978811
2022-09-04,16:01:54,4.328716755,-8.858546257,-1.89620769
2022-09-04,16:02:09,4.280832767,-8.858546257,-1.838746905
2022-09-04,16:02:24,4.34787035,-8.791508675,-1.426944256
2022-09-04,16:02:39,4.319139957,-8.801085472,-1.89620769
2022-09-04,16:02:54,4.357447147,-8.801085472,-1.762132406
2022-09-04,16:03:09,4.290409565,-8.81066227,-1.848323703
2022-09-04,16:03:24,4.27125597,-8.84896946,-1.723825216
2022-09-04,16:03:39,5.056553841,-8.590395927,-0.1436520964
2022-09-04,16:03:54,5.008669853,-8.590395927,-0.03830722719
2022-09-04,16:04:10,5.018246651,-8.58081913,0.1532289088
2022-09-04,16:04:25,5.018246651,-8.638279915,-0.04788403213
2022-09-04,16:04:40,5.046977043,-8.599972725,0.06703764945
2022-09-04,16:04:55,5.142745018,-8.609549522,0.2298433632
2022-09-04,16:05:10,5.008669853,-8.638279915,0.04788403213
2022-09-04,16:05:25,4.989516258,-8.6957407,0.2106897533
2022-09-04,16:05:40,4.979939461,-8.599972725,0.4309563041
2022-09-04,16:05:55,5.027823448,-8.532935143,-0.1915361285
2022-09-04,16:06:10,5.027823448,-8.532935143,-0.4022258818
2022-09-04,16:06:25,5.027823448,-8.552088737,-0.1915361285
2022-09-04,16:06:40,5.056553841,-8.628703117,0.181959331
2022-09-04,16:06:55,5.085284233,-8.58081913,0.3734954596
2022-09-04,16:07:10,4.970362663,-8.638279915,-0.2968810201
2022-09-04,16:07:25,4.979939461,-8.743624687,0.4788403511
2022-09-04,16:07:40,5.16189909,-8.590395927,0.3543418646
2022-09-04,16:07:55,5.027823448,-8.590395927,0.06703764945
2022-09-04,16:08:10,5.018246651,-8.647856712,-0.316034615
2022-09-04,16:08:25,4.979939461,-8.647856712,-0.1340752989
2022-09-04,16:08:40,4.922478676,-8.647856712,-0.04788403213
2022-09-04,16:08:55,5.008669853,-8.628703117,0.2585737705
2022-09-04,16:09:10,5.027823448,-8.561665535,0.2011129409
2022-09-04,16:09:25,5.075707436,-8.590395927,0.0287304204
2022-09-04,16:09:40,0.6607996821,-9.902418137,0.4979939461
2022-09-04,16:09:56,5.631162167,-7.987056732,-2.777273893
2022-09-04,16:10:11,5.114014626,-8.092401505,-3.466804028
2022-09-04,16:10:26,5.133168221,-8.015787125,-3.38061285
2022-09-04,16:10:41,5.037400246,-8.044517517,-3.447650433
2022-09-04,16:10:56,5.046977043,-8.063671112,-2.45166254
2022-09-04,16:11:11,5.027823448,-8.044517517,-3.284844637
2022-09-04,16:11:26,5.114014626,-8.006210327,-2.52827692
2022-09-04,16:11:41,5.094861031,-7.948749542,-2.920926094
2022-09-04,16:11:56,5.066130638,-7.987056732,-3.007117271
2022-09-04,16:12:11,5.20020628,-8.015787125,-2.920926094
2022-09-04,16:12:26,5.152322292,-7.939172745,-3.303998232
2022-09-04,16:12:41,5.133168221,-8.006210327,-2.959233284
2022-09-04,16:12:56,5.018246651,-7.967903137,-3.332728863
2022-09-04,16:13:11,5.056553841,-7.967903137,-3.294421434
2022-09-04,16:13:26,5.066130638,-7.929595947,-3.658340216
2022-09-04,16:13:41,5.123591423,-7.977479935,-2.48996973
2022-09-04,16:13:56,1.340752959,5.372588634,7.489062786
2022-09-04,16:14:11,4.146757126,-8.552088737,-3.007117271
2022-09-04,16:14:27,4.108449936,-8.609549522,-2.681505919
2022-09-04,16:14:42,4.089296341,-8.628703117,-2.604891539
2022-09-04,16:14:57,4.127603531,-8.590395927,-2.834734917
2022-09-04,16:15:12,4.175487995,-8.647856712,-2.710236311
2022-09-04,16:15:27,4.175487995,-8.58081913,-2.691082716
2022-09-04,16:15:42,4.175487995,-8.54251194,-2.710236311
2022-09-04,16:15:57,3.974374771,-8.73404789,-2.585737944
2022-09-04,16:16:12,4.079719543,-8.77235508,-2.518700123
2022-09-04,16:16:27,4.060565948,-8.724471092,-2.173935175
2022-09-04,16:16:42,4.041412354,-8.77235508,-2.729389906
2022-09-04,16:16:57,4.079719543,-8.705317497,-2.509123325
2022-09-04,16:17:12,4.050989151,-8.628703117,-2.853888512
2022-09-04,16:17:27,4.070142746,-8.676587105,-3.12203908
2022-09-04,16:17:42,-2.652775526,-9.366117477,-0.9959878922
2022-09-04,16:17:57,-2.691082716,-9.385271072,-0.4022258818
2022-09-04,16:18:12,-2.710236311,-9.366117477,-0.5650315881
2022-09-04,16:18:27,-2.671929121,-9.31823349,-0.6703764796
2022-09-04,16:18:42,-2.604891539,-9.337387085,-0.6320692301
2022-09-04,16:18:57,-2.700659513,-9.308655739,-0.7086837292
2022-09-04,16:19:12,-2.700659513,-9.308655739,-1.340752959
2022-09-04,16:19:27,-2.691082716,-9.346963882,-0.4501099288
2022-09-04,16:19:42,-2.681505919,-9.39484787,-0.2968810201
2022-09-04,16:19:57,-2.748543501,-9.337387085,-1.149216771
2022-09-04,16:20:13,-5.841852188,-5.592854977,2.068590164
2022-09-04,16:20:28,5.430049419,-2.786850691,8.216899872
2022-09-04,16:20:43,5.334281445,-2.767697096,8.121131897
2022-09-04,16:20:58,1.072602391,1.867477298,8.781931877
2022-09-04,16:21:48,5.98550415,1.216254473,7.900865555
2022-09-04,16:25:06,-0.8523358107,4.367023945,7.489062786
2022-09-04,16:25:22,0.5075707436,3.706224203,9.078812599
2022-09-04,16:25:37,-1.244984865,5.257667065,8.082824707
2022-09-04,16:25:52,0.4596867263,4.663905144,8.686163902
2022-09-04,16:26:07,0.2585737705,4.740519524,8.599972725
2022-09-04,16:26:22,0.09576806426,4.070142746,8.714894295
2022-09-04,16:26:37,-1.484405041,8.470685959,-4.290409565
2022-09-04,16:26:52,-2.11647439,2.52827692,9.203310966
2022-09-04,16:27:07,6.780379295,6.72291851,-2.097320795
2022-09-04,16:27:30,3.08373189,8.954314232,-2.729389906
2022-09-04,16:28:15,3.208230257,9.050082207,-2.518700123
2022-09-04,16:28:52,0.4213795066,-0.0287304204,9.883264542
2022-09-04,16:29:07,0.383072257,-0.09576806426,9.892841339
2022-09-04,16:29:22,0.3639186621,-0.1053448766,9.902418137
2022-09-04,16:29:37,0.2873041928,-0.07661445439,9.959878922
2022-09-04,16:29:52,0.3734954596,-0.06703764945,9.825803757
2022-09-04,16:30:07,0.383072257,-0.1532289088,9.883264542
2022-09-04,16:30:22,0.3639186621,-0.0191536136,9.825803757
2022-09-04,16:30:37,0.383072257,-0.03830722719,9.854534149
2022-09-04,16:30:52,0.4022258818,-0.03830722719,9.854534149
2022-09-04,16:31:08,0.3303998411,-0.05027823523,9.890447617
2022-09-04,16:31:23,0.3734954596,-0.08619125932,9.892841339
2022-09-04,16:31:38,0.4022258818,-0.06703764945,9.883264542
2022-09-04,16:31:53,0.3734954596,-0.07661445439,9.844957352
2022-09-04,16:32:08,0.4022258818,-0.05746084079,9.854534149
2022-09-04,16:32:23,0.3447650373,-0.03830722719,9.844957352
2022-09-04,16:32:38,0.3543418646,-0.09576806426,9.911994934
2022-09-04,16:32:53,0.4022258818,-0.1149216816,9.854534149
2022-09-04,16:33:08,0.3734954596,-0.009576806799,9.959878922
2022-09-04,16:33:23,0.3543418646,-0.04788403213,9.911994934
2022-09-04,16:33:38,0.4405331016,-0.09576806426,9.883264542
2022-09-04,16:33:53,0.3639186621,-0.03830722719,9.892841339
2022-09-04,16:34:08,0.1915361285,1.953668594,11.30063248
2022-09-04,16:34:37,-6.627150536,-6.895300865,-1.589749932
2022-09-04,16:34:54,-0.3351882398,1.197100878,8.437167168
2022-09-04,16:35:09,0.6703764796,-0.1628057212,9.959878922
2022-09-04,16:35:31,0.6895300746,-0.2106897533,9.835380554
2022-09-04,16:36:56,0.6991068721,-0.1723825186,9.902418137
2022-09-04,16:38:00,0.7086837292,-0.1436520964,9.864110947
2022-09-04,16:40:27,0.3926490843,-0.07661445439,9.873687744
2022-09-04,16:45:27,0.383072257,0.03830722719,9.883264542
2022-09-04,16:50:42,-0.08619125932,-0.181959331,9.883264542
2022-09-04,16:59:12,0.06703764945,-0.1532289088,9.873687744
2022-09-04,17:01:03,-0.09576806426,0.9935936928,10.00776291
2022-09-04,17:01:18,-6.464344501,1.024718285,6.081272125
2022-09-04,17:01:45,2.480392933,-9.643844604,0.1053448766
2022-09-04,17:03:33,3.16034627,-9.260771751,-1.522712231
2022-09-04,17:05:49,-3.821146011,-1.733402014,-8.667010307
2022-09-04,17:07:27,0.7278373241,0.009576806799,9.911994934
2022-09-04,17:10:07,0.6991068721,-0.07661445439,9.911994934
2022-09-04,17:15:56,0.7182605267,-0.1053448766,9.950302124
2022-09-04,17:22:34,-5.377377033,4.266467571,5.997475147
2022-09-04,17:23:26,0.9097966552,4.30956316,9.155426979
2022-09-04,17:23:41,1.206677675,9.682151794,-2.355894566
2022-09-04,17:23:56,0.8427590132,0.7278373241,9.854534149
2022-09-04,17:24:11,-1.446097851,9.528923035,0.8619126081
2022-09-04,17:24:26,-0.6607996821,2.336740971,9.576807022
2022-09-04,17:24:41,-0.316034615,1.18752408,9.720458984
2022-09-04,17:24:56,-0.4692635238,1.283292055,9.672574997
2022-09-04,17:25:11,-0.7469909191,-0.08619125932,9.806650162
2022-09-04,17:25:27,0.5363011956,0.2298433632,9.902418137
2022-09-04,17:25:42,-0.2202665508,1.666364431,9.710882187
2022-09-04,17:25:57,3.371036053,0.9097966552,9.232041359
2022-09-04,17:26:12,3.275267839,0.8523358107,9.385271072
2022-09-04,17:26:27,3.38061285,1.675941229,9.212887764
2022-09-04,17:26:42,1.848323703,1.024718285,9.682151794
2022-09-04,17:26:57,0.8236053586,0.6799532771,9.653421402
2022-09-04,17:27:17,-9.337387085,-9.184157372,-1.388636947
2022-09-04,17:27:41,-0.8906430602,-9.720458984,0.5458779931
2022-09-04,17:28:07,-0.2968810201,-9.567230225,0.4884171486
2022-09-04,17:28:51,3.543418407,-9.126696587,0.08619125932
2022-09-04,17:30:30,0.4596867263,-9.950302124,-0.5363011956
2022-09-04,17:32:39,3.878606796,-9.615114212,-0.6799532771
2022-09-04,17:33:30,1.101332784,-9.825803757,-0.1053448766
2022-09-04,17:33:58,-1.446097851,3.476380825,8.61912632
2022-09-04,17:34:13,-0.9097966552,-2.221819162,9.117119789
2022-09-04,17:34:28,-1.551442742,-0.4596867263,9.902418137
2022-09-04,17:34:44,7.498639584,0.6703764796,6.68461132
2022-09-04,17:34:59,3.620033026,-8.523358345,3.754108191
2022-09-04,17:35:14,4.817133904,-7.268796444,2.825158119
2022-09-04,17:35:29,2.346317768,0.4596867263,9.615114212
2022-09-04,17:35:44,-0.3639186621,6.090848923,6.665457726
2022-09-04,17:35:59,1.752555609,1.848323703,9.701305389
2022-09-04,17:36:14,0.1723825186,2.56658411,9.346963882
2022-09-04,17:36:29,0.7182605267,-0.09576806426,10.00776291
2022-09-04,17:36:44,-0.4979939461,4.376600742,8.169015884
2022-09-04,17:36:59,0.4596867263,4.874594688,8.599972725
2022-09-04,17:37:14,0.3639186621,4.57771349,8.820239067
2022-09-04,17:37:29,0.2777273953,4.855441093,8.111555099
2022-09-04,17:37:44,0.2873041928,4.740519524,8.686163902
2022-09-04,17:37:59,0.6512228847,-0.04788403213,9.701305389
2022-09-04,17:38:14,0.4884171486,-0.1244984865,9.921571732
2022-09-04,17:38:29,0.4022258818,-0.07661445439,9.701305389
2022-09-04,17:38:44,0.4596867263,-0.181959331,9.758766174
2022-09-04,17:38:59,0.4692635238,-0.0191536136,9.097966194
2022-09-04,17:39:14,0.3543418646,-0.04788403213,9.825803757
2022-09-04,17:39:29,0.181959331,0.03830722719,9.816226959
2022-09-04,17:39:44,0.2873041928,-0.08619125932,10.27591324
2022-09-04,17:39:59,0.2585737705,0.09576806426,9.442731857
2022-09-04,17:40:14,0.2968810201,-0.09576806426,9.998186111
2022-09-04,17:40:29,0.2777273953,-0.0287304204,9.653421402
2022-09-04,17:40:44,0.4118026793,-0.05746084079,9.931148529
2022-09-04,17:40:59,0.4979939461,-0.2298433632,10.78348446
2022-09-04,17:41:15,0.2585737705,-0.1532289088,10.45787334
2022-09-04,17:41:30,0.3256114423,-0.1053448766,9.835380554
2022-09-04,17:41:45,0.4022258818,-0.0191536136,9.835380554
2022-09-04,17:42:00,0.4405331016,-0.316034615,10.44829655
2022-09-04,17:42:15,0.316034615,-0.0191536136,10.08437729
2022-09-04,17:42:30,0.3639186621,0.009576806799,10.23760605
2022-09-04,17:42:45,0.3639186621,-0.2202665508,9.653421402
2022-09-04,17:43:00,0.3926490843,-0.09576806426,10.23760605
2022-09-04,17:43:15,0.3926490843,-0.08619125932,10.0556469
2022-09-04,17:43:30,0.423773706,-0.1316810995,9.87608242
2022-09-04,17:43:45,0.4213795066,-0.1340752989,9.883264542
2022-09-04,17:44:00,0.383072257,-0.06703764945,9.710882187
2022-09-04,17:44:15,0.4213795066,-0.06703764945,9.854534149
2022-09-04,17:44:30,0.3447650373,-0.07661445439,9.835380554
2022-09-04,17:44:45,0.3734954596,-0.09576806426,9.835380554
2022-09-04,17:45:00,0.3543418646,-0.06703764945,9.816226959
2022-09-04,17:45:15,0.383072257,-0.07661445439,9.816226959
2022-09-04,17:45:30,0.3639186621,-0.05746084079,9.892841339
2022-09-04,17:45:45,0.383072257,-0.0287304204,9.921571732
2022-09-04,17:46:00,0.4405331016,-0.0287304204,9.988609314
2022-09-04,17:46:15,0.3543418646,-0.06703764945,9.854534149
2022-09-04,17:46:30,0.4309563041,-0.04788403213,9.835380554
2022-09-04,17:46:46,0.3064578176,-0.06703764945,9.864110947
2022-09-04,17:47:01,0.3639186621,-0.0191536136,9.921571732
2022-09-04,17:47:16,0.3351882398,-0.07661445439,9.835380554
2022-09-04,17:47:31,0.3351882398,-0.04788403213,9.844957352
2022-09-04,17:47:46,0.3734954596,-0.1340752989,9.816226959
2022-09-04,17:48:01,0.4213795066,-0.0287304204,9.873687744
2022-09-04,17:48:16,0.4118026793,-0.06703764945,9.854534149
2022-09-04,17:48:31,0.3256114423,-0.06703764945,9.797073364
2022-09-04,17:48:46,0.4022258818,-0.0287304204,9.911994934
2022-09-04,17:49:01,0.3543418646,-0.05746084079,9.902418137
2022-09-04,17:49:16,0.3734954596,0.03830722719,9.816226959
2022-09-04,17:49:31,0.316034615,-0.09576806426,9.959878922
2022-09-04,17:49:46,0.4118026793,-0.09576806426,9.864110947
2022-09-04,17:50:01,0.3734954596,-0.06703764945,9.911994934
2022-09-04,17:50:16,0.383072257,-0.05746084079,9.950302124
2022-09-04,17:50:31,0.3447650373,-0.08619125932,9.892841339
2022-09-04,17:50:46,0.3447650373,0.0191536136,9.921571732
2022-09-04,17:51:01,0.4501099288,0.04788403213,9.030928612
2022-09-04,17:51:16,0.3926490843,-0.03830722719,9.816226959
2022-09-04,17:51:31,0.3351882398,-0.04788403213,9.892841339
2022-09-04,17:51:46,-0.181959331,1.371877551,9.172186852
2022-09-04,17:52:01,-1.170764685,4.060565948,8.954314232
2022-09-04,17:52:16,0.1244984865,3.49553442,9.270348549
2022-09-04,17:52:31,-0.4979939461,3.371036053,9.634267807
2022-09-04,17:52:46,0.4405331016,-0.06703764945,9.835380554
2022-09-04,17:53:01,0.4022258818,-0.009576806799,9.873687744
2022-09-04,17:53:17,0.4118026793,-0.0287304204,9.854534149
2022-09-04,17:53:32,0.383072257,-0.1053448766,9.797073364
2022-09-04,17:53:47,0.3734954596,-0.05746084079,9.835380554
2022-09-04,17:54:02,0.4118026793,-0.1053448766,9.969455719
2022-09-04,17:54:17,0.4118026793,0.009576806799,9.902418137
2022-09-04,17:54:32,0.4501099288,-0.1244984865,9.921571732
2022-09-04,17:54:47,0.4022258818,-0.05746084079,9.825803757
2022-09-04,17:55:02,0.383072257,-0.07661445439,9.931148529
2022-09-04,17:55:17,0.3447650373,-0.03830722719,9.806650162
2022-09-04,17:55:32,0.3447650373,-0.07661445439,9.825803757
2022-09-04,17:55:47,0.4213795066,-0.1053448766,9.873687744
2022-09-04,17:56:02,0.4118026793,-0.0287304204,9.854534149
2022-09-04,17:56:17,0.3639186621,-0.1053448766,9.854534149
2022-09-04,17:56:32,0.3351882398,-0.08619125932,9.892841339
2022-09-04,17:56:47,0.4118026793,-0.1053448766,9.835380554
2022-09-04,17:57:02,0.3926490843,-0.06703764945,9.806650162
2022-09-04,17:57:17,0.4118026793,-0.0287304204,9.864110947
2022-09-04,17:57:32,0.3639186621,-0.06703764945,9.921571732
2022-09-04,17:57:47,0.4213795066,-0.07661445439,9.873687744
2022-09-04,17:58:02,0.4118026793,-0.08619125932,9.892841339
2022-09-04,17:58:17,0.4118026793,-0.07661445439,9.883264542
2022-09-04,17:58:32,0.3543418646,-0.05746084079,9.825803757
2022-09-04,17:58:47,0.3926490843,-0.1340752989,9.959878922
2022-09-04,17:59:03,0.383072257,-0.06703764945,9.873687744
2022-09-04,17:59:18,0.3926490843,-0.1244984865,9.931148529
2022-09-04,17:59:33,0.383072257,-0.09576806426,9.864110947
2022-09-04,17:59:48,0.383072257,0,9.864110947
2022-09-04,18:00:03,0.383072257,-0.009576806799,9.844957352
2022-09-04,18:00:18,0.4118026793,-0.03830722719,9.844957352
2022-09-04,18:00:33,0.3806780577,-0.07422025502,9.885659218
2022-09-04,18:00:48,0.3543418646,-0.06703764945,9.864110947
2022-09-04,18:01:03,0.3543418646,0.1340752989,9.902418137
2022-09-04,18:01:18,-0.03830722719,2.576161146,9.749189377
2022-09-04,18:01:33,-0.08619125932,4.520252705,8.791508675
2022-09-04,18:01:48,0.4309563041,-0.06703764945,9.873687744
2022-09-04,18:02:03,0.517147541,-0.1053448766,9.911994934
2022-09-04,18:02:18,0.4596867263,-0.1149216816,9.844957352
2022-09-04,18:02:33,0.4788403511,-0.1149216816,9.911994934
2022-09-04,18:02:48,0.4405331016,-0.08619125932,9.758766174
2022-09-04,18:03:03,0.4405331016,-0.03830722719,9.921571732
2022-09-04,18:03:18,0.4596867263,-0.0287304204,9.844957352
2022-09-04,18:03:33,0.383072257,-0.04788403213,9.854534149
2022-09-04,18:03:48,0.4213795066,-0.09576806426,9.787496567
2022-09-04,18:04:03,0.4022258818,-0.06703764945,9.902418137
2022-09-04,18:04:18,0.4118026793,-0.0287304204,9.892841339
2022-09-04,18:04:33,0.4596867263,-0.09576806426,9.911994934
2022-09-04,18:04:49,0.4213795066,-0.07661445439,9.777919769
2022-09-04,18:05:04,0.4884171486,-0.0287304204,9.835380554
2022-09-04,18:05:19,0.4405331016,-0.06703764945,9.911994934
2022-09-04,18:05:34,0.4213795066,-0.06703764945,9.911994934
2022-09-04,18:05:49,0.4692635238,-0.009576806799,9.931148529
2022-09-04,18:06:04,0.4501099288,-0.0287304204,9.883264542
2022-09-04,18:06:19,0.4405331016,-0.03830722719,9.816226959
2022-09-04,18:06:34,0.4788403511,-0.08619125932,9.864110947
2022-09-04,18:06:49,0.4213795066,-0.0287304204,9.873687744
2022-09-04,18:07:04,0.4692635238,-0.06703764945,9.825803757
2022-09-04,18:07:58,0.4788403511,-0.1436520964,9.864110947
2022-09-04,18:09:29,0.1436520964,-3.399766445,10.18972206
2022-09-04,18:09:44,-0.316034615,-1.924938202,12.68926907
2022-09-04,18:09:59,0.316034615,-9.777919769,0.5746083856
2022-09-04,18:10:25,0.6895300746,-10.11310768,-0.2585737705
2022-09-04,18:10:59,-0.1723825186,-11.07078838,-4.031835556
2022-09-04,18:11:30,0.4309563041,-10.0364933,0.383072257
2022-09-04,18:14:43,-0.03830722719,3.79241538,9.107542992
2022-09-04,18:14:59,-2.987963676,8.446743965,-2.748543501
2022-09-04,18:15:14,-7.546523571,5.401319027,-1.714248419
2022-09-04,18:15:40,-6.464344501,4.750096321,-4.979939461
2022-09-04,18:16:50,-2.940079689,8.360552788,-3.667917013
2022-09-04,18:17:24,-7.556100368,-4.769249916,-1.177947283
2022-09-04,18:19:11,1.455674648,-9.39484787,0.7086837292
2022-09-04,18:23:44,-0.8523358107,1.350329757,9.145850182
2022-09-04,18:23:59,-3.055001259,-3.351882458,9.749189377
2022-09-04,18:24:14,0.3064578176,5.889736176,8.07324791
2022-09-04,18:24:32,-2.56658411,9.385271072,0.2873041928
2022-09-04,18:24:50,-5.870582581,5.516240597,-4.769249916
2022-09-04,18:25:27,-9.299078941,0.9768342972,-1.800439715
2022-09-04,18:25:51,-2.920926094,4.213795185,8.944737434
2022-09-04,18:26:06,1.043871999,4.50109911,8.61912632
2022-09-04,18:26:21,-0.7445967197,5.173870087,7.900865555
2022-09-04,18:26:36,-0.1053448766,6.560112476,1.206677675
2022-09-04,18:28:23,0.3351882398,-0.03830722719,9.873687744
2022-09-04,18:30:38,0.3447650373,0.0287304204,9.854534149
2022-09-04,18:38:39,0.3543418646,-0.009576806799,9.883264542
2022-09-04,18:42:38,-1.867477298,1.742978811,9.43315506
2022-09-04,18:42:53,6.550535679,8.054094315,-2.652775526
2022-09-04,18:43:08,0.8427590132,5.688623428,8.523358345
2022-09-04,18:43:23,16.03157425,-9.184157372,10.65898609
2022-09-04,18:43:38,8.303091049,-9.62469101,0.4979939461
2022-09-04,18:43:59,0.3734954596,0.0287304204,9.835380554
2022-09-04,18:44:23,0.3064578176,-0.03830722719,9.940725327
2022-09-04,18:44:38,0.2968810201,-0.08619125932,9.902418137
2022-09-04,18:44:53,0.2968810201,-0.09576806426,9.921571732
2022-09-04,18:45:08,0.3256114423,-0.03830722719,9.950302124
2022-09-04,18:45:23,0.3543418646,-0.03830722719,9.902418137
2022-09-04,18:45:38,0.3543418646,-0.05746084079,9.825803757
2022-09-04,18:46:44,0.3064578176,-0.1244984865,9.883264542
2022-09-04,18:49:41,0.3064578176,-0.1532289088,9.921571732
2022-09-04,18:53:33,0.3639186621,-0.09576806426,9.883264542
2022-09-04,18:56:11,0.2873041928,-0.1053448766,9.682151794
2022-09-04,18:59:26,0.3256114423,-0.05746084079,9.844957352
2022-09-04,18:59:49,0.3639186621,-0.1053448766,9.883264542
2022-09-04,19:02:21,7.785943985,5.372588634,2.537853718
2022-09-04,19:02:36,5.487510204,4.941632271,6.397306919
2022-09-04,19:02:52,-5.027823448,5.995080948,-5.219359875
2022-09-04,19:03:07,-4.414907932,6.550535679,-5.190629482
2022-09-04,19:03:22,-4.548983097,6.588842869,-5.23851347
2022-09-04,19:03:37,-4.587290287,6.607996464,-5.142745018
2022-09-04,19:03:52,-7.84340477,2.52827692,-7.948749542
2022-09-04,19:04:17,-4.941632271,5.487510204,-5.937620163
2022-09-04,19:05:00,6.962338448,3.112462282,5.621585369
2022-09-04,19:05:15,0.4213795066,-0.1244984865,9.959878922
2022-09-04,19:06:03,4.108449936,-0.06703764945,9.155426979
2022-09-04,19:06:27,4.108449936,-0.1149216816,9.212887764
2022-09-04,19:06:54,4.050989151,-0.09576806426,9.165003777
2022-09-04,19:07:21,4.022258759,-0.1436520964,9.117119789
2022-09-04,19:08:14,4.022258759,-0.05746084079,9.165003777
2022-09-04,19:08:37,3.993528366,-0.1436520964,9.136273384
2022-09-04,19:09:58,4.050989151,-0.07661445439,9.165003777
2022-09-04,19:10:31,4.022258759,-0.1244984865,9.174580574
2022-09-04,19:11:04,3.983951569,-0.0287304204,9.165003777
2022-09-04,19:12:25,4.050989151,-0.1244984865,9.212887764
2022-09-04,19:12:52,4.031835556,-0.0287304204,9.184157372
2022-09-04,19:13:26,3.974374771,-0.09576806426,9.193734169
2022-09-04,19:13:41,3.945644379,-0.07661445439,9.155426979
2022-09-04,19:13:56,3.907337189,-0.1053448766,9.174580574
2022-09-04,19:14:11,3.916913986,-0.1723825186,9.232041359
2022-09-04,19:14:26,3.974374771,-0.0191536136,9.279925346
2022-09-04,19:14:42,3.964797974,-0.1149216816,9.251194954
2022-09-04,19:14:57,3.916913986,-0.08619125932,9.203310966
2022-09-04,19:15:12,3.936067581,-0.07661445439,9.174580574
2022-09-04,19:15:27,3.936067581,-0.0191536136,9.174580574
2022-09-04,19:15:42,3.983951569,-0.1149216816,9.184157372
2022-09-04,19:15:57,3.964797974,-0.09576806426,9.203310966
2022-09-04,19:16:12,3.878606796,-0.09576806426,9.193734169
2022-09-04,19:16:27,3.964797974,-0.09576806426,9.212887764
2022-09-04,19:16:42,3.945644379,-0.07661445439,9.174580574
2022-09-04,19:16:57,3.964797974,-0.009576806799,9.251194954
2022-09-04,19:17:12,3.983951569,-0.04788403213,9.136273384
2022-09-04,19:17:27,3.926490784,-0.03830722719,9.222464561
2022-09-04,19:17:42,3.983951569,-0.0287304204,9.193734169
2022-09-04,19:17:57,3.993528366,-0.07661445439,9.155426979
2022-09-04,19:18:12,3.955221176,-0.1340752989,9.184157372
2022-09-04,19:18:27,3.878606796,-0.05746084079,9.232041359
2022-09-04,19:18:42,3.955221176,-0.06703764945,9.251194954
2022-09-04,19:18:57,3.983951569,-0.06703764945,9.184157372
2022-09-04,19:19:12,3.955221176,-0.1244984865,9.251194954
2022-09-04,19:19:27,3.983951569,-0.08619125932,9.241618156
2022-09-04,19:19:42,4.012681961,-0.08619125932,9.260771751
2022-09-04,19:19:57,3.955221176,-0.09576806426,9.222464561
2022-09-04,19:20:12,3.955221176,-0.09576806426,9.241618156
2022-09-04,19:20:28,3.916913986,-0.03830722719,9.232041359
2022-09-04,19:20:43,3.964797974,-0.1340752989,9.145850182
2022-09-04,19:20:58,3.945644379,-0.08619125932,9.174580574
2022-09-04,19:21:13,3.974374771,-0.09576806426,9.145850182
2022-09-04,19:21:28,3.916913986,-0.1340752989,9.260771751
2022-09-04,19:21:43,3.955221176,-0.06703764945,9.212887764
2022-09-04,19:21:58,3.955221176,-0.05746084079,9.184157372
2022-09-04,19:22:13,3.897760391,-0.04788403213,9.222464561
2022-09-04,19:22:28,3.964797974,-0.1149216816,9.193734169
2022-09-04,19:22:43,3.936067581,-0.07661445439,9.107542992
2022-09-04,19:22:58,3.916913986,-0.07661445439,9.165003777
2022-09-04,19:23:13,3.916913986,-0.03830722719,9.203310966
2022-09-04,19:23:28,3.907337189,-0.06703764945,9.203310966
2022-09-04,19:23:43,3.926490784,-0.1149216816,9.203310966
2022-09-04,19:23:58,3.983951569,-0.1436520964,9.232041359
2022-09-04,19:24:13,3.926490784,-0.03830722719,9.193734169
2022-09-04,19:24:28,3.945644379,-0.04788403213,9.088389397
2022-09-04,19:24:43,3.964797974,-0.1149216816,9.232041359
2022-09-04,19:24:58,3.878606796,-0.1053448766,9.165003777
2022-09-04,19:25:13,3.955221176,-0.0287304204,9.203310966
2022-09-04,19:25:28,3.916913986,-0.06703764945,9.241618156
2022-09-04,19:25:43,4.012681961,-0.05746084079,9.212887764
2022-09-04,19:25:58,3.955221176,-0.09576806426,9.260771751
2022-09-04,19:26:13,3.955221176,-0.09576806426,9.203310966
2022-09-04,19:26:29,3.945644379,-0.06703764945,9.193734169
2022-09-04,19:26:44,3.916913986,-0.05746084079,9.184157372
2022-09-04,19:26:59,3.945644379,-0.05746084079,9.203310966
2022-09-04,19:27:14,3.849876404,-0.09576806426,9.174580574
2022-09-04,19:27:29,3.983951569,-0.04788403213,9.088389397
2022-09-04,19:27:44,3.869029999,-0.09576806426,9.241618156
2022-09-04,19:27:59,3.926490784,-0.1436520964,9.251194954
2022-09-04,19:28:14,4.003105164,-0.05746084079,9.212887764
2022-09-04,19:28:29,3.840299606,-0.07661445439,9.222464561
2022-09-04,19:28:44,3.897760391,-0.0191536136,9.184157372
2022-09-04,19:28:59,3.907337189,-0.0287304204,9.222464561
2022-09-04,19:29:14,3.869029999,-0.05746084079,9.165003777
2022-09-04,19:29:29,3.964797974,-0.1053448766,9.193734169
2022-09-04,19:29:44,3.897760391,-0.06703764945,9.165003777
2022-09-04,19:29:59,3.859453201,-0.04788403213,9.203310966
2022-09-04,19:30:14,3.907337189,-0.06703764945,9.184157372
2022-09-04,19:30:29,3.916913986,-0.05746084079,9.184157372
2022-09-04,19:30:44,3.907337189,-0.06703764945,9.251194954
2022-09-04,19:30:59,3.916913986,-0.05746084079,9.203310966
2022-09-04,19:31:14,3.897760391,-0.08619125932,9.222464561
2022-09-04,19:31:29,3.888183594,-0.03830722719,9.232041359
2022-09-04,19:31:44,3.936067581,-0.0287304204,9.212887764
2022-09-04,19:32:00,3.849876404,-0.1532289088,9.165003777
2022-09-04,19:32:15,3.916913986,-0.09576806426,9.184157372
2022-09-04,19:32:30,3.859453201,-0.06703764945,9.155426979
2022-09-04,19:32:45,3.936067581,-0.08619125932,9.165003777
2022-09-04,19:33:00,3.840299606,-0.03830722719,9.203310966
2022-09-04,19:33:15,3.936067581,-0.04788403213,9.203310966
2022-09-04,19:33:30,3.897760391,-0.09576806426,9.212887764
2022-09-04,19:33:45,3.897760391,-0.1149216816,9.212887764
2022-09-04,19:34:00,3.897760391,-0.04788403213,9.184157372
2022-09-04,19:34:15,3.869029999,-0.06703764945,9.241618156
2022-09-04,19:34:30,3.830722809,-0.07661445439,9.232041359
2022-09-04,19:34:45,3.916913986,-0.06703764945,9.222464561
2022-09-04,19:35:00,3.936067581,-0.05746084079,9.145850182
2022-09-04,19:35:15,3.907337189,-0.04788403213,9.193734169
2022-09-04,19:35:30,3.830722809,-0.06703764945,9.155426979
2022-09-04,19:35:45,3.955221176,-0.06703764945,9.203310966
2022-09-04,19:36:00,3.945644379,-0.09576806426,9.270348549
2022-09-04,19:36:15,3.869029999,-0.09576806426,9.184157372
2022-09-04,19:36:30,3.878606796,-0.08619125932,9.241618156
2022-09-04,19:36:45,3.897760391,-0.0287304204,9.184157372
2022-09-04,19:37:00,3.897760391,-0.06703764945,9.184157372
2022-09-04,19:37:15,3.907337189,-0.05746084079,9.212887764
2022-09-04,19:37:30,3.926490784,-0.06703764945,9.212887764
2022-09-04,19:37:45,3.878606796,-0.009576806799,9.241618156
2022-09-04,19:38:01,3.897760391,-0.1149216816,9.145850182
2022-09-04,19:38:16,3.878606796,-0.1149216816,9.241618156
2022-09-04,19:38:31,3.878606796,-0.04788403213,9.203310966
2022-09-04,19:38:46,3.916913986,-0.07661445439,9.174580574
2022-09-04,19:39:01,3.926490784,-0.07661445439,9.203310966
2022-09-04,19:39:16,3.897760391,-0.1053448766,9.145850182
2022-09-04,19:39:31,3.878606796,-0.08619125932,9.212887764
2022-09-04,19:39:46,3.907337189,-0.09576806426,9.232041359
2022-09-04,19:40:01,3.916913986,-0.1149216816,9.165003777
2022-09-04,19:40:16,3.897760391,-0.05746084079,9.232041359
2022-09-04,19:40:31,3.916913986,-0.03830722719,9.165003777
2022-09-04,19:40:46,3.888183594,-0.04788403213,9.193734169
2022-09-04,19:41:01,3.955221176,-0.08619125932,9.279925346
2022-09-04,19:41:16,3.955221176,-0.0191536136,9.193734169
2022-09-04,19:41:31,3.955221176,-0.06703764945,9.174580574
2022-09-04,19:41:46,3.926490784,-0.03830722719,9.203310966
2022-09-04,19:42:01,3.859453201,-0.09576806426,9.260771751
2022-09-04,19:42:16,3.926490784,-0.07661445439,9.193734169
2022-09-04,19:42:31,3.888183594,-0.04788403213,9.155426979
2022-09-04,19:42:46,3.926490784,-0.0191536136,9.126696587
2022-09-04,19:43:01,3.907337189,-0.05746084079,9.184157372
2022-09-04,19:43:16,3.897760391,-0.06703764945,9.212887764
2022-09-04,19:43:31,3.936067581,-0.04788403213,9.184157372
2022-09-04,19:43:46,3.907337189,-0.05746084079,9.136273384
2022-09-04,19:44:01,3.888183594,-0.08619125932,9.165003777
2022-09-04,19:44:17,3.830722809,-0.08619125932,9.212887764
2022-09-04,19:44:32,3.916913986,-0.1149216816,9.155426979
2022-09-04,19:44:47,3.936067581,-0.04788403213,9.270348549
2022-09-04,19:45:02,3.878606796,-0.06703764945,9.184157372
2022-09-04,19:45:17,3.907337189,-0.1149216816,9.184157372
2022-09-04,19:45:32,3.869029999,-0.05746084079,9.241618156
2022-09-04,19:45:47,3.916913986,-0.03830722719,9.212887764
2022-09-04,19:46:02,3.897760391,-0.08619125932,9.251194954
2022-09-04,19:46:17,3.936067581,-0.06703764945,9.232041359
2022-09-04,19:46:32,2.365471363,5.401319027,7.000645638
2022-09-04,19:46:47,0.248996973,0.08619125932,9.873687744
2022-09-04,19:48:26,0.1915361285,0.1149216816,9.911994934
2022-09-04,19:48:42,0.9481038451,9.069235802,2.173935175
2022-09-04,19:48:57,1.312022567,9.442731857,1.608903527
2022-09-04,19:49:12,-7.95832634,0.7086837292,-4.951209068
2022-09-04,19:49:27,-8.178592682,0.6224924326,-4.788403511
2022-09-04,19:49:42,-8.944737434,-0.1244984865,-2.518700123
2022-09-04,19:50:03,-9.078812599,-0.0287304204,-2.710236311
2022-09-04,19:50:20,-9.260771751,-0.3447650373,-2.422932148
2022-09-04,19:50:46,-9.040505409,-0.3639186621,-2.978386879
2022-09-04,19:51:04,-8.935160637,-0.1532289088,-2.825158119
2022-09-04,19:51:50,-8.963891029,-0.3543418646,-2.892195702
2022-09-04,19:52:12,-8.753201485,0.08619125932,-3.38061285
2022-09-04,19:52:54,-10.40041256,-0.8619126081,-3.505111217
2022-09-04,19:53:52,-8.609549522,-0.3734954596,-3.706224203
2022-09-04,19:54:43,-8.676587105,-0.5937620401,-3.572149038
2022-09-04,19:55:28,-8.532935143,-0.8236053586,-3.591302633
2022-09-04,19:55:43,-9.088389397,-0.8810662031,-2.796427488
2022-09-04,19:55:58,1.331176162,9.653421402,-0.08619125932
2022-09-04,19:56:13,3.888183594,8.963891029,0.6416460276
2022-09-04,19:56:28,-8.485051155,-0.9097966552,-4.050989151
2022-09-04,19:57:13,-8.667010307,0.3926490843,-3.667917013
2022-09-04,19:58:08,-8.81066227,-0.1340752989,-3.323152065
2022-09-04,19:59:05,-9.011775017,-1.838746905,-1.656787634
2022-09-04,19:59:43,-6.138733387,3.045424461,-6.397306919
2022-09-04,20:00:19,-7.431602001,1.982398987,-5.458779812
2022-09-04,20:00:50,-1.532289028,9.414001465,0.9576807022
2022-09-04,20:01:05,-2.968810081,9.165003777,1.139639974
2022-09-04,20:01:25,-3.303998232,9.279925346,3.840299606
2022-09-04,20:01:51,0.7565677166,0.5363011956,9.777919769
2022-09-04,20:02:06,0.8331822157,0.5746083856,9.701305389
2022-09-04,20:02:24,-3.687070608,0.9097966552,-8.906430244
2022-09-04,20:02:39,1.254561663,-0.2394201756,9.758766174
2022-09-04,20:02:55,0.4596867263,1.369483352,-9.58638382
2022-09-04,20:03:23,0.4979939461,1.302445769,-9.643844604
2022-09-04,20:03:56,0.5363011956,1.388636947,-9.576807022
2022-09-04,20:04:47,0.517147541,1.379060149,-9.672574997
2022-09-04,20:05:37,0.5267243981,1.331176162,-9.557653427
2022-09-04,20:08:05,3.12203908,-10.10353088,-3.303998232
2022-09-04,20:08:32,8.188169479,-5.391742229,4.156333923
2022-09-04,20:08:47,5.056553841,-7.603984833,0.4405331016
2022-09-04,20:09:02,1.810016513,-10.01733971,0.9672574997
2022-09-04,20:10:11,0.04788403213,-11.54962921,3.007117271
2022-09-04,20:10:31,-0.3926490843,2.126051188,9.232041359
2022-09-04,20:10:47,1.235408068,9.911994934,0.2777273953
2022-09-04,20:11:25,0.6799532771,2.097320795,9.720458984
2022-09-04,20:11:40,-0.6991068721,1.532289028,10.98459721
2022-09-04,20:12:06,3.189076662,-3.936067581,-2.681505919
2022-09-04,20:12:52,-0.1628057212,-18.25339317,2.920926094
2022-09-04,20:13:25,1.484405041,6.416460514,11.48259163
2022-09-04,20:13:41,-0.1915361285,5.20020628,10.46745014
2022-09-04,20:13:56,-1.063025594,3.303998232,12.47857952
2022-09-04,20:14:11,-9.289502144,5.018246651,-5.20020628
2022-09-04,20:14:39,-5.688623428,5.066130638,-2.796427488
2022-09-04,20:15:09,1.312022567,-11.05163479,-0.06703764945
2022-09-04,20:16:17,2.45166254,-5.410895824,5.497087002
2022-09-04,20:17:32,-0.6416460276,0.8714894056,3.485957623
2022-09-04,20:17:47,0.1532289088,4.807557106,9.576807022
2022-09-04,20:18:02,-0.517147541,4.797980309,5.372588634
2022-09-04,20:18:17,0.04788403213,6.081272125,8.054094315
2022-09-04,20:18:32,-1.350329757,-10.74517727,0.1628057212
2022-09-04,20:20:17,-8.571242332,-2.001552582,-7.10599041
2022-09-04,20:20:55,0.1053448766,0.5075707436,9.691728592
2022-09-04,20:21:10,-0.1915361285,3.600879431,9.423578262
2022-09-04,20:21:25,1.59932673,4.625597477,9.165003777
2022-09-04,20:21:40,1.00556469,9.040505409,3.303998232
2022-09-04,20:21:55,-3.744531393,5.612008572,5.975927353
2022-09-04,20:22:10,1.359906554,4.223371983,10.57279491
2022-09-04,20:22:25,-8.379706383,-4.472368717,-0.9193734527
2022-09-04,20:22:40,-4.788403511,-7.833827972,-0.6320692301
2022-09-04,20:22:55,7.872135162,-2.384624958,-1.426944256
2022-09-04,20:23:28,1.015141487,2.959233284,9.442731857
2022-09-04,20:23:43,-0.1723825186,-1.570596337,10.44829655
2022-09-04,20:23:58,0.1915361285,1.331176162,9.988609314
2022-09-04,20:24:13,1.244984865,2.15478158,9.710882187
2022-09-04,20:24:28,-1.292868972,0.4022258818,10.58237171
2022-09-04,20:24:43,-0.6991068721,2.643198729,9.883264542
2022-09-04,20:24:58,3.026270866,0.8714894056,9.31823349
2022-09-04,20:25:14,1.091755986,4.587290287,8.935160637
2022-09-04,20:25:29,4.223371983,1.551442742,9.442731857
2022-09-04,20:25:44,-1.675941229,0.8140285611,9.528923035
2022-09-04,20:25:59,-1.426944256,-2.997540474,9.31823349
2022-09-04,20:26:14,-1.197100878,1.292868972,10.26633644
2022-09-04,20:26:29,-0.9385270476,0.9002198577,9.452308655
2022-09-04,20:26:44,-6.138733387,4.951209068,4.711789131
2022-09-04,20:26:59,0.3447650373,2.106897593,9.203310966
2022-09-04,20:27:14,0.9864110947,1.800439715,9.653421402
2022-09-04,20:27:29,-0.0287304204,2.279279947,9.595960617
2022-09-04,20:27:44,-0.04788403213,2.288856745,9.576807022
2022-09-04,20:27:59,-0.5075707436,4.750096321,8.561665535
2022-09-04,20:28:14,-1.18752408,4.529829502,8.571242332
2022-09-04,20:28:29,-2.442085743,3.706224203,8.801085472
2022-09-04,20:28:44,-1.972822189,4.414907932,8.485051155
2022-09-04,20:28:59,-6.311115742,2.164358377,10.23760605
2022-09-04,20:29:14,-0.08619125932,4.376600742,8.954314232
2022-09-04,20:29:30,0.383072257,4.022258759,8.647856712
2022-09-04,20:29:45,-0.2681505978,3.993528366,8.571242332
2022-09-04,20:30:00,-1.063025594,-1.618480325,7.441178799
2022-09-04,20:30:15,0.1244984865,2.509123325,9.797073364
2022-09-04,20:30:30,0.517147541,5.832275391,7.498639584
2022-09-04,20:30:45,0.6416460276,7.345410824,7.163451672
2022-09-04,20:31:00,0.8427590132,8.667010307,4.826710701
2022-09-04,20:31:15,-0.3351882398,8.092401505,5.573701382
2022-09-04,20:31:30,2.892195702,7.671022415,5.612008572
2022-09-04,20:31:45,1.915361404,7.738059998,5.640739441
2022-09-04,20:32:00,2.145204782,7.307103634,6.177040577
2022-09-04,20:32:15,-0.3064578176,6.809109688,7.058106422
2022-09-04,20:32:30,-1.972822189,4.38617754,8.485051155
2022-09-04,20:32:57,2.317587137,0.4405331016,-9.662998199
2022-09-04,20:33:35,1.675941229,-0.6033388376,-9.634267807
2022-09-04,20:36:30,-0.1053448766,-3.562572241,-9.117119789
2022-09-04,20:43:24,-3.217807055,-2.039859772,-8.801085472
2022-09-04,20:50:03,-4.242525578,-1.800439715,-8.370129585
2022-09-04,20:51:59,-4.692635536,-0.9002198577,-8.245630264
2022-09-04,20:54:13,2.240972757,-9.481039047,-1.647210717
2022-09-04,20:58:21,0.08619125932,-13.40752983,-10.28549004
2022-09-04,20:59:07,-0.4788403511,6.713341713,4.616020679
2022-09-04,20:59:54,-6.83784008,6.493074894,-3.227383852
2022-09-04,21:00:52,-6.588842869,7.479485989,-2.011129379
2022-09-04,21:01:07,-11.19528675,-8.015787125,-0.8523358107
2022-09-04,21:06:51,1.398213744,-11.16655636,0.4692635238
2022-09-04,21:10:34,0.7565677166,-0.7565677166,9.854534149
2022-09-04,21:10:49,0.7852981687,-0.8140285611,9.835380554
2022-09-04,21:11:04,-3.351882458,9.988609314,6.272808552
2022-09-04,21:11:19,0.9289502501,9.662998199,-0.0287304204
2022-09-04,21:11:34,1.493981838,9.634267807,-0.08619125932
2022-09-04,21:11:49,1.551442742,9.691728592,0.1628057212
2022-09-04,21:12:04,1.130063176,9.672574997,0.6895300746
2022-09-04,21:12:19,0.9672574997,9.615114212,0.0287304204
2022-09-04,21:12:34,1.053448796,9.662998199,0.2202665508
2022-09-04,21:12:49,1.149216771,9.653421402,0.2681505978
2022-09-04,21:13:05,1.158793569,9.615114212,0.0287304204
2022-09-04,21:13:20,0.8714894056,9.672574997,0.3447650373
2022-09-04,21:13:35,1.244984865,9.62469101,0.3926490843
2022-09-04,21:13:50,1.18752408,9.634267807,0.7086837292
2022-09-04,21:14:05,0.8810662031,9.62469101,0.9481038451
2022-09-04,21:14:20,0.1915361285,9.47146225,1.522712231
2022-09-04,21:14:35,-0.2106897533,9.481039047,1.982398987
2022-09-04,21:14:50,-0.3734954596,9.260771751,2.260126352
2022-09-04,21:15:05,0,9.662998199,1.024718285
2022-09-04,21:15:20,0.2202665508,9.835380554,0.7469909191
2022-09-04,21:15:35,0.4979939461,9.691728592,2.298433542
2022-09-04,21:15:50,1.810016513,9.327810287,1.656787634
2022-09-04,21:16:05,1.59932673,9.423578262,2.470816135
2022-09-04,21:16:20,1.551442742,9.289502144,2.346317768
2022-09-04,21:16:35,1.618480325,9.35654068,1.570596337
2022-09-04,21:16:50,1.484405041,9.538499832,1.81959331
2022-09-04,21:17:05,1.656787634,9.375694275,1.589749932
2022-09-04,21:17:20,1.580173135,9.500192642,1.570596337
2022-09-04,21:17:35,1.474828243,9.35654068,2.30801034
2022-09-04,21:17:50,1.570596337,9.39484787,1.503558636
2022-09-04,21:18:05,1.350329757,9.279925346,2.135627985
2022-09-04,21:18:20,1.331176162,9.634267807,1.321599364
2022-09-04,21:18:36,0.0287304204,9.442731857,1.953668594
2022-09-04,21:18:51,0.3926490843,9.557653427,1.350329757
2022-09-04,21:19:06,0.5554547906,9.519346237,1.541865945
2022-09-04,21:19:21,0.5363011956,9.62469101,1.254561663
2022-09-04,21:19:36,0.6129156351,9.672574997,1.838746905
2022-09-04,21:19:51,0.4213795066,9.557653427,1.618480325
2022-09-04,21:20:06,0.2968810201,9.174580574,3.332728863
2022-09-04,21:20:21,0.2106897533,9.088389397,3.648763418
2022-09-04,21:20:36,0.3447650373,9.021351814,3.830722809
2022-09-04,21:20:51,0.09576806426,9.097966194,3.591302633
2022-09-04,21:21:06,0.08619125932,9.117119789,3.246537447
2022-09-04,21:21:21,0.07661445439,9.165003777,3.49553442
2022-09-04,21:21:36,0,9.030928612,3.476380825
2022-09-04,21:21:51,-0.1053448766,9.090784073,3.471592426
2022-09-04,21:22:06,0.1436520964,9.136273384,3.600879431
2022-09-04,21:22:21,0.06703764945,9.069235802,3.505111217
2022-09-04,21:22:36,0.1244984865,9.212887764,3.064578056
2022-09-04,21:22:51,3.600879431,8.647856712,3.524264812
2022-09-04,21:23:06,3.045424461,8.973467827,2.240972757
2022-09-04,21:23:21,3.035847664,9.107542992,1.656787634
2022-09-04,21:23:36,2.844311714,9.337387085,1.580173135
2022-09-04,21:23:51,2.911349297,9.232041359,1.8579005
2022-09-04,21:24:06,6.06211853,5.736507416,4.932055473
2022-09-04,21:24:22,4.702212334,8.255207062,2.470816135
2022-09-04,21:24:37,-0.9576807022,9.145850182,3.074155092
2022-09-04,21:24:52,0.6607996821,9.126696587,3.562572241
2022-09-04,21:25:07,0.6512228847,8.983044624,3.256114244
2022-09-04,21:25:22,0.3734954596,9.030928612,3.294421434
2022-09-04,21:25:37,-1.197100878,8.485051155,4.38617754
2022-09-04,21:25:52,-0.9193734527,8.983044624,3.821146011
2022-09-04,21:26:07,-0.6991068721,9.078812599,3.227383852
2022-09-04,21:26:22,-0.3447650373,9.203310966,3.179499865
2022-09-04,21:26:37,-0.6320692301,8.992621422,3.169923067
2022-09-04,21:26:52,-0.248996973,8.916007042,3.658340216
2022-09-04,21:27:07,-0.9385270476,9.107542992,3.08373189
2022-09-04,21:27:22,-0.8619126081,8.963891029,4.012681961
2022-09-04,21:27:37,-0.5937620401,9.011775017,3.897760391
2022-09-04,21:27:52,-0.4405331016,8.992621422,3.849876404
2022-09-04,21:28:07,0.6703764796,8.714894295,4.46279192
2022-09-04,21:28:22,0.7086837292,8.705317497,4.405331135
2022-09-04,21:28:37,1.034295082,8.58081913,4.510675907
2022-09-04,21:28:52,0.8810662031,8.456320763,4.692635536
2022-09-04,21:29:07,0.4213795066,9.107542992,3.811569214
2022-09-04,21:29:22,0.1053448766,8.906430244,3.572149038
2022-09-04,21:29:37,0.06703764945,8.916007042,4.070142746
2022-09-04,21:29:52,0.3734954596,8.887276649,4.070142746
2022-09-04,21:30:08,0.2202665508,8.753201485,3.964797974
2022-09-04,21:30:23,0.5363011956,8.753201485,4.395754337
2022-09-04,21:30:38,0.3351882398,8.647856712,4.27125597
2022-09-04,21:30:53,0.7182605267,8.6957407,4.434061527
2022-09-04,21:31:08,1.00556469,8.6957407,4.261679173
2022-09-04,21:31:23,0.9481038451,8.475474358,4.884171486
2022-09-04,21:31:38,1.206677675,8.523358345,4.769249916
2022-09-04,21:31:53,1.063025594,8.552088737,4.405331135
2022-09-04,21:32:08,0.517147541,-0.0287304204,9.672574997
2022-09-04,21:32:23,0.517147541,0.009576806799,10.10353088
2022-09-04,21:32:38,0.4501099288,-0.0287304204,9.375694275
2022-09-04,21:32:53,0.3639186621,-0.09576806426,9.749189377
2022-09-04,21:33:08,0.5937620401,-0.1532289088,9.959878922
2022-09-04,21:33:31,-0.1053448766,0.181959331,9.854534149
2022-09-04,21:33:53,-0.08619125932,0.1628057212,9.825803757
2022-09-04,21:34:24,-0.1149216816,0.1723825186,9.911994934
2022-09-04,21:35:05,-0.1149216816,0.181959331,9.931148529
2022-09-04,21:36:29,-0.1053448766,0.1628057212,9.931148529
2022-09-04,21:37:20,0.0191536136,4.481945515,8.887276649
2022-09-04,21:37:35,0.6224924326,-0.2106897533,9.979032516
2022-09-04,21:37:50,0.3256114423,-0.03830722719,9.892841339
2022-09-04,21:38:05,0.3256114423,-0.07661445439,9.854534149
2022-09-04,21:38:20,0.2777273953,-0.0287304204,9.902418137
2022-09-04,21:38:35,0.2106897533,2.863465309,9.35654068
2022-09-04,21:38:50,-2.26970315,1.158793569,9.662998199
2022-09-04,21:39:05,0.1771709323,2.094926596,9.864110947
2022-09-04,21:39:20,0.2202665508,2.748543501,9.768342972
2022-09-04,21:39:35,0.4118026793,-0.1053448766,9.854534149
2022-09-04,21:39:50,0.3351882398,-0.08619125932,9.911994934
2022-09-04,21:40:05,0.3351882398,-0.06703764945,9.835380554
2022-09-04,21:40:20,0.383072257,-0.03830722719,9.873687744
2022-09-04,21:40:35,0.3734954596,-0.009576806799,9.481039047
2022-09-04,21:40:50,0.2202665508,-0.1244984865,9.902418137
2022-09-04,21:41:06,0.2681505978,-0.06703764945,9.873687744
2022-09-04,21:41:29,0.517147541,-0.08619125932,9.902418137
2022-09-04,21:42:54,0.4884171486,-0.1340752989,9.892841339
2022-09-04,21:43:45,0.4213795066,-0.1436520964,9.873687744
2022-09-04,21:44:11,0.5458779931,-0.09576806426,9.864110947
2022-09-04,21:46:33,0.4501099288,-0.1436520964,9.902418137
2022-09-04,21:46:59,0.4979939461,-0.1149216816,9.873687744
2022-09-04,21:48:21,0.4979939461,-0.1532289088,9.883264542
2022-09-04,21:49:07,0.4692635238,-0.1340752989,9.940725327
2022-09-04,21:50:07,0.4884171486,-0.08619125932,9.883264542
2022-09-04,21:52:28,0.4596867263,-0.1340752989,9.835380554
2022-09-04,21:55:31,0.4596867263,-0.1532289088,9.864110947
2022-09-04,21:57:34,0.4884171486,-0.1053448766,9.873687744
2022-09-04,21:58:21,0.2202665508,-0.1053448766,9.959878922
2022-09-04,21:58:37,0.2202665508,-0.07661445439,9.931148529
2022-09-04,21:58:52,0.248996973,-0.09576806426,9.797073364
2022-09-04,21:59:07,0.3351882398,-0.06703764945,9.940725327
2022-09-04,21:59:22,0.2394201756,-0.05746084079,9.892841339
2022-09-04,21:59:37,0.2681505978,-0.0287304204,9.911994934
2022-09-04,21:59:52,0.248996973,0.0287304204,9.921571732
2022-09-04,22:00:07,0.2298433632,-0.05746084079,9.854534149
2022-09-04,22:00:22,0.2968810201,-0.08619125932,9.950302124
2022-09-04,22:00:37,0.2394201756,-0.06703764945,9.931148529
2022-09-04,22:00:52,0.2394201756,-0.1340752989,9.902418137
2022-09-04,22:01:07,0.2873041928,-0.1053448766,9.892841339
2022-09-04,22:01:22,0.2585737705,-0.0287304204,9.921571732
2022-09-04,22:01:37,0.2873041928,-0.04788403213,9.864110947
2022-09-04,22:01:53,0.2394201756,-0.0287304204,9.806650162
2022-09-04,22:02:08,0.2968810201,-0.009576806799,9.911994934
2022-09-04,22:02:23,0.2873041928,-0.07661445439,9.864110947
2022-09-04,22:02:38,0.2585737705,-0.06703764945,9.892841339
2022-09-04,22:02:53,0.2681505978,-0.08619125932,9.902418137
2022-09-04,22:03:08,0.2394201756,-0.05746084079,9.902418137
2022-09-04,22:03:23,0.3064578176,-0.03830722719,9.940725327
2022-09-04,22:03:38,0.2202665508,-0.05746084079,9.902418137
2022-09-04,22:03:53,0.2298433632,-0.07661445439,9.959878922
2022-09-04,22:04:08,0.2298433632,-0.0287304204,9.864110947
2022-09-04,22:04:23,0.2394201756,-0.08619125932,9.844957352
2022-09-04,22:04:38,0.2968810201,-0.06703764945,9.873687744
2022-09-04,22:04:53,0.2298433632,-0.1244984865,9.931148529
2022-09-04,22:05:08,0.2202665508,-0.07661445439,9.931148529
2022-09-04,22:05:23,0.3064578176,-0.04788403213,9.921571732
2022-09-04,22:05:38,0.248996973,-0.07661445439,9.959878922
2022-09-04,22:05:53,0.2873041928,-0.1053448766,9.873687744
2022-09-04,22:06:08,0.3064578176,0,9.911994934
2022-09-04,22:06:23,0.2681505978,-0.05746084079,9.921571732
2022-09-04,22:06:38,0.2777273953,-0.08619125932,9.806650162
2022-09-04,22:06:53,0.2394201756,-0.1532289088,9.844957352
2022-09-04,22:07:08,0.2585737705,0.03830722719,9.873687744
2022-09-04,22:07:23,0.1628057212,-0.1244984865,10.01733971
2022-09-04,22:07:38,0.2585737705,-0.1244984865,9.940725327
2022-09-04,22:07:53,0.2968810201,-0.08619125932,9.921571732
2022-09-04,22:08:08,0.2106897533,-0.0191536136,9.864110947
2022-09-04,22:08:23,0.3064578176,-0.009576806799,9.911994934
2022-09-04,22:08:38,0.2968810201,-0.0287304204,9.844957352
2022-09-04,22:08:53,0.3064578176,-0.1340752989,9.979032516
2022-09-04,22:09:08,0.2968810201,-0.03830722719,9.950302124
2022-09-04,22:09:23,0.248996973,-0.06703764945,9.797073364
2022-09-04,22:09:38,0.2585737705,-0.04788403213,9.883264542
2022-09-04,22:09:54,0.2873041928,-0.1532289088,9.816226959
2022-09-04,22:10:09,0.2873041928,-0.05746084079,9.921571732
2022-09-04,22:10:24,0.2873041928,-0.1149216816,9.940725327
2022-09-04,22:10:39,0.2394201756,-0.0191536136,9.873687744
2022-09-04,22:10:54,0.2011129409,-0.04788403213,9.816226959
2022-09-04,22:11:09,0.2585737705,-0.04788403213,9.921571732
2022-09-04,22:11:24,0.3351882398,-0.009576806799,9.883264542
2022-09-04,22:11:39,0.2106897533,-0.04788403213,9.844957352
2022-09-04,22:11:54,0.2681505978,-0.04788403213,9.844957352
2022-09-04,22:12:09,0.2777273953,-0.009576806799,9.844957352
2022-09-04,22:12:24,0.2968810201,0.009576806799,9.844957352
2022-09-04,22:12:39,0.2968810201,-0.1149216816,9.902418137
2022-09-04,22:12:54,0.2873041928,-0.07661445439,9.969455719
2022-09-04,22:13:09,0.3543418646,-0.07661445439,9.873687744
2022-09-04,22:13:24,0.2681505978,-0.03830722719,9.921571732
2022-09-04,22:13:39,0.2777273953,0,9.825803757
2022-09-04,22:13:54,0.2202665508,-0.07661445439,9.854534149
2022-09-04,22:14:09,0.3351882398,-0.0191536136,9.873687744
2022-09-04,22:14:24,0.1723825186,-0.009576806799,9.883264542
2022-09-04,22:14:40,0.2394201756,-0.0287304204,9.825803757
2022-09-04,22:14:55,0.2681505978,-0.07661445439,9.911994934
2022-09-04,22:15:10,0.3064578176,-0.04788403213,9.835380554
2022-09-04,22:15:25,0.248996973,-0.05746084079,9.825803757
2022-09-04,22:15:40,0.2968810201,-0.07661445439,9.864110947
2022-09-04,22:15:55,0.2202665508,-0.0287304204,9.911994934
2022-09-04,22:16:10,0.2968810201,-0.09576806426,9.835380554
2022-09-04,22:16:25,0.3447650373,-0.07661445439,9.892841339
2022-09-04,22:16:40,0.2585737705,-0.03830722719,9.892841339
2022-09-04,22:16:55,0.2681505978,0,9.950302124
2022-09-04,22:17:10,0.248996973,-0.07661445439,9.892841339
2022-09-04,22:17:25,0.316034615,-0.03830722719,9.931148529
2022-09-04,22:17:40,0.2777273953,-0.08619125932,9.911994934
2022-09-04,22:17:55,0.3064578176,-0.0191536136,9.854534149
2022-09-04,22:18:10,0.2777273953,-0.09576806426,9.921571732
2022-09-04,22:18:25,0.2777273953,-0.009576806799,9.902418137
2022-09-04,22:18:40,0.248996973,-0.05746084079,9.873687744
2022-09-04,22:18:55,0.2202665508,-0.0287304204,9.854534149
